"success","timeout","failed_images","failed_audio","failed_video","trial_type","trial_index","plugin_version","time_elapsed","subject_id","experiment_date","prolific_id_last4","study_id","session_id","version","condition","schedule","sp1Points","sp1Dollars","sp2Points","sp2Dollars","SP1_ball_received_T","SP1_ball_received_SP2","SP2_ball_received_T","burn_amount","task","rt","stimulus","response","question_order","correct","value","from","to","slider_start"
"true","false","[]","[]","[]","preload","0","2.0.0","140","0fusl3s1va","2026-02-16","8dcf","null","69938458de32db7e6f1096fb","Pilot_1","1","1","8","0.40","8","0.40","8","","8","0","","","","","","","","","",""
"","","","","","html-button-response","1","2.0.0","124718","0fusl3s1va","2026-02-16","8dcf","null","69938458de32db7e6f1096fb","Pilot_1","1","1","8","0.40","8","0.40","8","","8","0","consent","124577","
    <p style = ""text-align: start; width: 900px""> You are being invited to participate in a research study titled: The Influence of Social Interactions on Decision Making.<br><br>
        This study is being done by Michael McCullough, PhD (Principal Investigator) from UC San Diego. You were selected to participate in this study because you are a representative member of the society the investigators wish to study. 
        The purpose of this research study is to explore how nonverbal social interactions affect the way people talk to themselves. Your participation in this research should last no longer than 30 minutes. If you agree to take part in this study, you will be asked to complete several surveys that ask about your feelings, beliefs, judgments, and personal background.
        Your participation in this study is completely voluntary and you can withdraw at any time. Choosing not to participate or withdrawing will result in no penalty or loss of benefits to which you are entitled. Research sometimes requires that information regarding its purpose not be shared with the research participants because its knowledge could impact the results of the research. 
        Note that none of the aspects of the research being withheld are reasonably expected to affect your willingness to take part. While the tasks you will be asked to perform for this research have been explained, the full intent of the research will not be provided until the completion of the study. At that time, you will have the opportunity to ask questions, including about the purpose of the study and the procedures used, and withdraw your data if you so choose.
        If you have questions about this project or if you have a research-related problem, you may contact the researcher(s), Michael McCullough, Ph.D., Department of Psychology, University of California, San Diego, 9500 Gilman Drive, La Jolla, CA 92093-0109 and by email at memccullough@ucsd.edu. If you have any questions concerning your rights as a research subject, you may contact the UC San Diego Office of IRB Administration at irb@ucsd.edu or 858-246-4777.
        By participating in this research, you are indicating that you are at least 18 years old, have read this consent form, and agree to participate in this research study. Please keep this consent form for your records.</p>
        <p>Do you consent?</p>","0","","","","","",""
"","","","","","html-button-response","2","2.0.0","144235","0fusl3s1va","2026-02-16","8dcf","null","69938458de32db7e6f1096fb","Pilot_1","1","1","8","0.40","8","0.40","8","","8","0","study_description","19516","<h2>Study Description</h2>
                 <p style=""width: 900px; text-align: start"">Thank you for agreeing to participate in this study! This study seeks to understand how social interactions influence our decision-making processes.<br><br>
                 In this study, you will play a virtual ball-tossing game with two other participants. The game is designed to simulate social interactions and observe how they affect how you make decisions towards other people.<br><br>
                 The instructions for the game will be provided in the next section. To ensure that everyone understands the rules, there will be a short quiz. If you get any answers wrong, don't worry—you will have the opportunity to review the instructions and retake the quiz until you get all the answers correct.<br><br>
                 Please pay close attention to the game and try to engage with the other participants as naturally as possible.</p>","0","","","","","",""
"","","","","","html-button-response","3","2.0.0","170983","0fusl3s1va","2026-02-16","8dcf","null","69938458de32db7e6f1096fb","Pilot_1","1","1","8","0.40","8","0.40","8","","8","0","game_instructions","26746","<h2>Game Instructions</h2>
                <p style=""width: 1000px; text-align: start"">In Cyberball there are three players: Standard Player 1 (SP1), Standard Player 2 (SP2), and a Treasurer. <b>You are SP1</b>.
                <br><br>
                Your objective in Cyberball is to earn points by tossing a ball. At the end of the game, the points will be converted into a monetary bonus. Each point you earn is worth $0.05. To help you keep track of points, there will be a scoreboard displayed in the top-right corner of the screen during the game.
                <br><br>
                The way the game works is that SP1 and SP2 individually earn points by tossing the ball to the Treasurer. Each time that SP1 or SP2 tossed the ball to the Treasurer, <u>the person who tossed the ball earns one point</u>. In other words, SP1 and SP2 earn points when they get the chance to toss the ball to the Treasurer.
                So, for example, if SP1 tosses the ball to the Treasurer, SP1 will earn one point and SP2 will not earn any points. Likewise, if SP2 tosses the ball to the Treasurer, SP2 will earn one point and SP1 will not earn anything. 
                <br><br>
                Keep in mind that SP1 and SP2 cannot earn points by tossing the ball to each other. SP1 and SP2 can only earn points by tossing the ball to the Treasurer.</p>","0","","","","","",""
"","","","","","survey-multi-choice","4","2.1.0","187805","0fusl3s1va","2026-02-16","8dcf","null","69938458de32db7e6f1096fb","Pilot_1","1","1","8","0.40","8","0.40","8","","8","0","comprehension_quiz","16818","","{""role"":""Standard Player 1 (SP1)"",""points"":""By tossing the ball to the Treasurer"",""passing"":""Yes"",""passing_points"":""0 points""}","[0,1,2,3]","true","","","",""
"","","","","","html-button-response","5","2.0.0","206249","0fusl3s1va","2026-02-16","8dcf","null","69938458de32db7e6f1096fb","Pilot_1","1","1","8","0.40","8","0.40","8","","8","0","","18440","<p style=""color:green; font-weight:bold"">Great! You have answered all questions correctly. Let's move on to the game.</p><p>If you need a refresh on the instructions, please click the button <i>Open Cyberball Rules</i> on the top left corner of your screen.</p>","0","","","","","",""
"","","","","","call-function","6","null","206251","0fusl3s1va","2026-02-16","8dcf","null","69938458de32db7e6f1096fb","Pilot_1","1","1","8","0.40","8","0.40","8","","8","0","","","","","","","","","",""
"","","","","","call-function","7","null","206254","0fusl3s1va","2026-02-16","8dcf","null","69938458de32db7e6f1096fb","Pilot_1","1","1","8","0.40","8","0.40","8","","8","0","","","","","","","","","",""
"","","","","","html-keyboard-response","8","2.0.0","211332","0fusl3s1va","2026-02-16","8dcf","null","69938458de32db7e6f1096fb","Pilot_1","1","1","8","0.40","8","0.40","8","","8","0","","","","","","","","Treasurer","SP2",""
"","","","","","html-keyboard-response","9","2.0.0","215947","0fusl3s1va","2026-02-16","8dcf","null","69938458de32db7e6f1096fb","Pilot_1","1","1","8","0.40","8","0.40","8","","8","0","","","","","","","","SP2","Treasurer",""
"","","","","","html-keyboard-response","10","2.0.0","220264","0fusl3s1va","2026-02-16","8dcf","null","69938458de32db7e6f1096fb","Pilot_1","1","1","8","0.40","8","0.40","8","","8","0","","","","","","","","Treasurer","SP1",""
"","","","","","html-keyboard-response","11","2.0.0","227414","0fusl3s1va","2026-02-16","8dcf","null","69938458de32db7e6f1096fb","Pilot_1","1","1","8","0.40","8","0.40","8","","8","0","","","","","","","","SP1","Treasurer",""
"","","","","","html-keyboard-response","12","2.0.0","230764","0fusl3s1va","2026-02-16","8dcf","null","69938458de32db7e6f1096fb","Pilot_1","1","1","8","0.40","8","0.40","8","","8","0","","","","","","","","Treasurer","SP2",""
"","","","","","html-keyboard-response","13","2.0.0","234948","0fusl3s1va","2026-02-16","8dcf","null","69938458de32db7e6f1096fb","Pilot_1","1","1","8","0.40","8","0.40","8","","8","0","","","","","","","","SP2","Treasurer",""
"","","","","","html-keyboard-response","14","2.0.0","239880","0fusl3s1va","2026-02-16","8dcf","null","69938458de32db7e6f1096fb","Pilot_1","1","1","8","0.40","8","0.40","8","","8","0","","","","","","","","Treasurer","SP1",""
"","","","","","html-keyboard-response","15","2.0.0","242614","0fusl3s1va","2026-02-16","8dcf","null","69938458de32db7e6f1096fb","Pilot_1","1","1","8","0.40","8","0.40","8","","8","0","","","","","","","","SP1","Treasurer",""
"","","","","","html-keyboard-response","16","2.0.0","246363","0fusl3s1va","2026-02-16","8dcf","null","69938458de32db7e6f1096fb","Pilot_1","1","1","8","0.40","8","0.40","8","","8","0","","","","","","","","Treasurer","SP1",""
"","","","","","html-keyboard-response","17","2.0.0","249081","0fusl3s1va","2026-02-16","8dcf","null","69938458de32db7e6f1096fb","Pilot_1","1","1","8","0.40","8","0.40","8","","8","0","","","","","","","","SP1","Treasurer",""
"","","","","","html-keyboard-response","18","2.0.0","253497","0fusl3s1va","2026-02-16","8dcf","null","69938458de32db7e6f1096fb","Pilot_1","1","1","8","0.40","8","0.40","8","","8","0","","","","","","","","Treasurer","SP2",""
"","","","","","html-keyboard-response","19","2.0.0","257747","0fusl3s1va","2026-02-16","8dcf","null","69938458de32db7e6f1096fb","Pilot_1","1","1","8","0.40","8","0.40","8","","8","0","","","","","","","","SP2","Treasurer",""
"","","","","","html-keyboard-response","20","2.0.0","261764","0fusl3s1va","2026-02-16","8dcf","null","69938458de32db7e6f1096fb","Pilot_1","1","1","8","0.40","8","0.40","8","","8","0","","","","","","","","Treasurer","SP1",""
"","","","","","html-keyboard-response","21","2.0.0","265313","0fusl3s1va","2026-02-16","8dcf","null","69938458de32db7e6f1096fb","Pilot_1","1","1","8","0.40","8","0.40","8","","8","0","","","","","","","","SP1","Treasurer",""
"","","","","","html-keyboard-response","22","2.0.0","269480","0fusl3s1va","2026-02-16","8dcf","null","69938458de32db7e6f1096fb","Pilot_1","1","1","8","0.40","8","0.40","8","","8","0","","","","","","","","Treasurer","SP2",""
"","","","","","html-keyboard-response","23","2.0.0","272930","0fusl3s1va","2026-02-16","8dcf","null","69938458de32db7e6f1096fb","Pilot_1","1","1","8","0.40","8","0.40","8","","8","0","","","","","","","","SP2","Treasurer",""
"","","","","","html-keyboard-response","24","2.0.0","276830","0fusl3s1va","2026-02-16","8dcf","null","69938458de32db7e6f1096fb","Pilot_1","1","1","8","0.40","8","0.40","8","","8","0","","","","","","","","Treasurer","SP2",""
"","","","","","html-keyboard-response","25","2.0.0","280964","0fusl3s1va","2026-02-16","8dcf","null","69938458de32db7e6f1096fb","Pilot_1","1","1","8","0.40","8","0.40","8","","8","0","","","","","","","","SP2","Treasurer",""
"","","","","","html-keyboard-response","26","2.0.0","284847","0fusl3s1va","2026-02-16","8dcf","null","69938458de32db7e6f1096fb","Pilot_1","1","1","8","0.40","8","0.40","8","","8","0","","","","","","","","Treasurer","SP1",""
"","","","","","html-keyboard-response","27","2.0.0","287713","0fusl3s1va","2026-02-16","8dcf","null","69938458de32db7e6f1096fb","Pilot_1","1","1","8","0.40","8","0.40","8","","8","0","","","","","","","","SP1","Treasurer",""
"","","","","","html-keyboard-response","28","2.0.0","291013","0fusl3s1va","2026-02-16","8dcf","null","69938458de32db7e6f1096fb","Pilot_1","1","1","8","0.40","8","0.40","8","","8","0","","","","","","","","Treasurer","SP2",""
"","","","","","html-keyboard-response","29","2.0.0","294580","0fusl3s1va","2026-02-16","8dcf","null","69938458de32db7e6f1096fb","Pilot_1","1","1","8","0.40","8","0.40","8","","8","0","","","","","","","","SP2","Treasurer",""
"","","","","","html-keyboard-response","30","2.0.0","298379","0fusl3s1va","2026-02-16","8dcf","null","69938458de32db7e6f1096fb","Pilot_1","1","1","8","0.40","8","0.40","8","","8","0","","","","","","","","Treasurer","SP1",""
"","","","","","html-keyboard-response","31","2.0.0","300930","0fusl3s1va","2026-02-16","8dcf","null","69938458de32db7e6f1096fb","Pilot_1","1","1","8","0.40","8","0.40","8","","8","0","","","","","","","","SP1","Treasurer",""
"","","","","","html-keyboard-response","32","2.0.0","305213","0fusl3s1va","2026-02-16","8dcf","null","69938458de32db7e6f1096fb","Pilot_1","1","1","8","0.40","8","0.40","8","","8","0","","","","","","","","Treasurer","SP1",""
"","","","","","html-keyboard-response","33","2.0.0","309763","0fusl3s1va","2026-02-16","8dcf","null","69938458de32db7e6f1096fb","Pilot_1","1","1","8","0.40","8","0.40","8","","8","0","","","","","","","","SP1","Treasurer",""
"","","","","","html-keyboard-response","34","2.0.0","314830","0fusl3s1va","2026-02-16","8dcf","null","69938458de32db7e6f1096fb","Pilot_1","1","1","8","0.40","8","0.40","8","","8","0","","","","","","","","Treasurer","SP2",""
"","","","","","html-keyboard-response","35","2.0.0","319780","0fusl3s1va","2026-02-16","8dcf","null","69938458de32db7e6f1096fb","Pilot_1","1","1","8","0.40","8","0.40","8","","8","0","","","","","","","","SP2","Treasurer",""
"","","","","","html-keyboard-response","36","2.0.0","323678","0fusl3s1va","2026-02-16","8dcf","null","69938458de32db7e6f1096fb","Pilot_1","1","1","8","0.40","8","0.40","8","","8","0","","","","","","","","Treasurer","SP1",""
"","","","","","html-keyboard-response","37","2.0.0","326480","0fusl3s1va","2026-02-16","8dcf","null","69938458de32db7e6f1096fb","Pilot_1","1","1","8","0.40","8","0.40","8","","8","0","","","","","","","","SP1","Treasurer",""
"","","","","","html-keyboard-response","38","2.0.0","330896","0fusl3s1va","2026-02-16","8dcf","null","69938458de32db7e6f1096fb","Pilot_1","1","1","8","0.40","8","0.40","8","","8","0","","","","","","","","Treasurer","SP2",""
"","","","","","html-keyboard-response","39","2.0.0","334563","0fusl3s1va","2026-02-16","8dcf","null","69938458de32db7e6f1096fb","Pilot_1","1","1","8","0.40","8","0.40","8","","8","0","","","","","","","","SP2","Treasurer",""
"","","","","","html-button-response","40","2.0.0","339181","0fusl3s1va","2026-02-16","8dcf","null","69938458de32db7e6f1096fb","Pilot_1","1","1","8","0.40","8","0.40","8","","8","0","end_game","4614","<h2>Game Over</h2>
              <p style=""width: 800px; text-align: start;"">The game has ended! You earned <b>8 points</b>, which is equivalent to <b>$0.40</b>.<br><br>
                Your fellow player, Standard Player 2, earned <b>8 points</b>, which is equivalent to <b>$0.40</b>.<br><br>
                Please click the button below to continue to the next part of the study.</p>","0","","","","","",""
"","","","","","survey-text","41","2.0.0","355983","0fusl3s1va","2026-02-16","8dcf","null","69938458de32db7e6f1096fb","Pilot_1","1","1","8","0.40","8","0.40","8","","8","0","comprehension_check","16787","","{""SP1_ball_received_T"":""8"",""SP2_ball_received_T"":""8""}","","","","","",""
"","","","","","html-slider-response","42","2.0.0","398430","0fusl3s1va","2026-02-16","8dcf","null","69938458de32db7e6f1096fb","Pilot_1","1","1","8","0.40","8","0.40","8","","8","0","","42443","
  <p style=""width: 1000px; padding: 10px"">
    You may choose to reduce SP2’s earnings by giving up some of your own earnings. This is a <u>one-time, one-sided decision</u>. This means only you make this decision; SP2 will not make a corresponding decision.<br><br>

    For every <b>$0.01</b> you give up, SP2’s earnings are reduced by <b>$0.05</b>.<br>
    For example, giving up <b>$0.03</b> reduces SP2’s earnings by <b>$0.15</b>. Choosing $0 means no change to either participant's earnings.<br>
    Earnings for either participant cannot go below <b>$0</b>.<br><br>

    You may move the slider below to see how different choices would affect both participants’ earnings. Moving the slider does not finalize your decision. Your decision is only locked in once you click 'Continue' and move on to the next task.<br><br>

    There is no correct or expected choice. Please use the slider to indicate how much of your own earnings you would like to give up in order to reduce SP2's earnings.
    </p>

  <div style=""
    display:flex;
    justify-content:center;
    gap:100px;
    margin:30px 0;
    align-items:flex-end;
  "">

    <div style=""text-align:center;"">
      <div id=""sp1-baseline"" style=""font-weight: bold; margin-bottom:6px;"">$0.00</div>
      <div id=""sp1-coins""></div>
      <div style=""margin-top:6px;"">You (SP1)</div>
    </div>

    <div style=""text-align:center;"">
      <div id=""sp2-baseline"" style=""font-weight: bold; margin-bottom:6px;"">$0.00</div>
      <div id=""sp2-coins""></div>
      <div style=""margin-top:6px;"">SP2</div>
    </div>

  </div>
  ","0","","","","","","0"
"","","","","","call-function","43","null","398431","0fusl3s1va","2026-02-16","8dcf","null","69938458de32db7e6f1096fb","Pilot_1","1","1","8","0.40","8","0.40","8","","8","0","","","","","","","","","",""
"","","","","","survey-text","44","2.0.0","1068513","0fusl3s1va","2026-02-16","8dcf","null","69938458de32db7e6f1096fb","Pilot_1","1","1","8","0.40","8","0.40","8","","8","0","","670080","","{""dv1_OE_game_satisfaction"":""I'm very satisfied with the game as it seemed like the amount of times that the treasurer passed the ball to both me and the other player was equal and fair. It was very easy to understand the dynamic of all the players and seemed like all players did well."",""dv1_oe_playtime_satisfaction"":""Yes, I am satisfied with how much I got to play because it didn't seem like I was excluded or irrelevant to the game. The game felt like all players were treated with the same amount of chances to get the ball, and I got to play the same amount as the other player."",""dv1_oe_earnings_satisfaction"":""Yes I was satisfied with the amount of money I made because it seemed like a fair and good amount of money that I made, and was the same as the other player. I'm satisfied and feel like it went the best it could and took all the chances to earn extra money that I could."",""dv1_oe_treasurer_behavior"":""The behaviour of the treasurer was favourable to me, as they seemed equal and did their job in a fair way that meant no player was excluded and had the same amount of choices. I didn't have too many previous expectations but it was definitely a positive experience and there is nothing I wished had been done differently."",""dv1_oe_sp2_behavior"":""I didn't take much notice of SP2 as I was concentrated on my own job and felt like we were just playing the same game with the same goal but not as competition, however, I didn't dislike their behaviour as they seemed to behave as I did with my character and didn't do anything that I also didn't do."",""dv1_oe_message_to_treasurer"":""I would say to the treasurer that I am glad they played the game in the way they did and it was a fair game between them and me and the other player. nothing they did affected me in a negative way and they made the game a pleasant experience to play. "",""dv1_oe_message_to_sp2"":""I would be indifferent toward SP2 if I spoke to them because I didn't think the game was very competitive because it was fair but don't think any of their behaviour was unfavourable. Nothing about their behaviour affected me in any way other than I suppose they reduced the amount of money I made.""}","","","","","",""
"","","","","","survey-likert","45","2.0.0","1106948","0fusl3s1va","2026-02-16","8dcf","null","69938458de32db7e6f1096fb","Pilot_1","1","1","8","0.40","8","0.40","8","","8","0","","38431","","{""dv2_praising"":4,""dv2_insulting"":1,""dv2_avoiding"":1,""dv2_become_friends"":4,""dv2_unkind_things"":1,""dv2_helping"":5,""dv2_complementing"":5,""dv2_favor"":5,""dv2_invite_fun"":5,""dv2_ignore"":1}","[0,1,2,3,4,5,6,7,8,9]","","","","",""
"","","","","","survey-likert","46","2.0.0","1139311","0fusl3s1va","2026-02-16","8dcf","null","69938458de32db7e6f1096fb","Pilot_1","1","1","8","0.40","8","0.40","8","","8","0","","32350","","{""dv3_state_envy"":0,""dv3_state_jealous"":0,""dv3_state_bitter"":0,""dv3_state_resentful"":0,""dv3_state_happy"":4,""dv3_state_compassionate"":5,""dv3_state_surprised"":1,""dv3_state_grateful"":2,""dv3_state_thankful"":2,""dv3_state_sad"":0,""dv3_state_upset"":0,""dv3_state_disappointed"":0,""dv3_state_annoyed"":1,""dv3_state_angry"":0,""dv3_state_shame"":0,""dv3_state_contempt"":0,""dv3_state_joy"":2,""dv3_state_irritated"":1}","[0,1,2,3,4,5,6,7,8,9,10,11,12,13,14,15,16,17]","","","","",""
"","","","","","survey-likert","47","2.0.0","1162049","0fusl3s1va","2026-02-16","8dcf","null","69938458de32db7e6f1096fb","Pilot_1","1","1","8","0.40","8","0.40","8","","8","0","","22724","","{""dv3a_felt_malicious_envy"":0,""dv3a_felt_bad_others"":0,""dv3a_game_different"":0,""dv3a_felt_ignored"":0,""dv3a_performed_well"":6,""dv3a_wish_received_more"":1,""dv3a_game_unfair"":0,""dv3a_attention_check_1"":1,""dv3a_results_happy"":6,""dv3a_felt_excluded"":0,""dv3a_understood_rules"":6}","[7,10,2,4,9,3,0,5,1,6,8]","","","","",""
"","","","","","survey-likert","48","2.0.0","1191562","0fusl3s1va","2026-02-16","8dcf","null","69938458de32db7e6f1096fb","Pilot_1","1","1","8","0.40","8","0.40","8","","8","0","","29509","","{""dv3b_sp2_closeness"":1,""dv3b_sp2_rival"":0,""dv3b_sp2_deservingness"":6,""dv3b_sp2_competition"":0,""dv3b_sp2_betrayal"":0,""dv3b_sp2_shared_goals"":6,""dv3b_sp2_take_winnings"":0,""dv3b_sp2_unfiar"":0}","[0,7,4,5,1,6,3,2]","","","","",""
"","","","","","survey-likert","49","2.0.0","1202162","0fusl3s1va","2026-02-16","8dcf","null","69938458de32db7e6f1096fb","Pilot_1","1","1","8","0.40","8","0.40","8","","8","0","","10595","","{""dv3b_treasurer_shared_goals"":1,""dv3b_treasurer_competition"":0,""dv3c_treasurer_betrayal"":0,""dv3c_treasurer_closeness"":5,""dv3b_treasurer_rival"":0,""dv3c_treasurer_unfair"":0}","[4,3,1,0,5,2]","","","","",""
"","","","","","survey-likert","50","2.0.0","1236790","0fusl3s1va","2026-02-16","8dcf","null","69938458de32db7e6f1096fb","Pilot_1","1","1","8","0.40","8","0.40","8","","8","0","","34623","","{""dv4_rain_on_parade"":0,""dv4_trade_places_rev"":5,""dv4_angry_others_succeed"":1,""dv4_happy_friends_succeed_rev"":5,""dv4_content_with_self_rev"":5,""dv4_happy_others_succeed_rev"":4,""dv4_pain_friends_succeed"":1,""dv4_prefer_stranger_win"":3}","[0,1,2,3,4,5,6,7]","","","","",""
"","","","","","survey-multi-choice","51","2.1.0","1273529","0fusl3s1va","2026-02-16","8dcf","null","69938458de32db7e6f1096fb","Pilot_1","1","1","8","0.40","8","0.40","8","","8","0","","36736","","{""demo_attention_check_2"":""1000+"",""demo_sex"":""Female"",""demo_gender"":""Woman"",""demo_education"":""Bachelor's degree (4-years)"",""demo_social_class"":""1 = lower/working"",""demo_marital_status"":""Never married""}","[0,1,2,3,4,5]","","","","",""
"","","","","","survey-text","52","2.0.0","1275877","0fusl3s1va","2026-02-16","8dcf","null","69938458de32db7e6f1096fb","Pilot_1","1","1","8","0.40","8","0.40","8","","8","0","","2339","","{""demo_age"":""23""}","","","","","",""
"","","","","","survey-multi-select","53","null","1278574","0fusl3s1va","2026-02-16","8dcf","null","69938458de32db7e6f1096fb","Pilot_1","1","1","8","0.40","8","0.40","8","","8","0","","2693","","{""demo_race"":[""White""]}","[0]","","","","",""
"","","","","","survey-likert","54","2.0.0","1287490","0fusl3s1va","2026-02-16","8dcf","null","69938458de32db7e6f1096fb","Pilot_1","1","1","8","0.40","8","0.40","8","","8","0","","8913","","{""attention_check_3"":4}","[0]","","","","",""
"","","","","","survey-text","55","2.0.0","1320357","0fusl3s1va","2026-02-16","8dcf","null","69938458de32db7e6f1096fb","Pilot_1","1","1","8","0.40","8","0.40","8","","8","0","","32856","","{""funnel1"":""Ideas about fairness and equality"",""funnel2"":""How people react toward ideas of fairness and monetary decisions"",""funnel3"":""None""}","","","","","",""
