"success","timeout","failed_images","failed_audio","failed_video","trial_type","trial_index","plugin_version","time_elapsed","subject_id","experiment_date","prolific_id_last4","study_id","session_id","version","condition","schedule","sp1Points","sp1Dollars","sp2Points","sp2Dollars","SP1_ball_received_T","SP1_ball_received_SP2","SP2_ball_received_T","burn_amount","task","rt","stimulus","response","question_order","correct","value","from","to","slider_start"
"true","false","[]","[]","[]","preload","0","2.0.0","142","426gs9dswv","2026-02-16","852b","null","69938498f81719480e0e91d4","Pilot_1","4","4","8","0.40","8","0.40","6 ","2","8","1","","","","","","","","","",""
"","","","","","html-button-response","1","2.0.0","18042","426gs9dswv","2026-02-16","852b","null","69938498f81719480e0e91d4","Pilot_1","4","4","8","0.40","8","0.40","6 ","2","8","1","consent","17891","
    <p style = ""text-align: start; width: 900px""> You are being invited to participate in a research study titled: The Influence of Social Interactions on Decision Making.<br><br>
        This study is being done by Michael McCullough, PhD (Principal Investigator) from UC San Diego. You were selected to participate in this study because you are a representative member of the society the investigators wish to study. 
        The purpose of this research study is to explore how nonverbal social interactions affect the way people talk to themselves. Your participation in this research should last no longer than 30 minutes. If you agree to take part in this study, you will be asked to complete several surveys that ask about your feelings, beliefs, judgments, and personal background.
        Your participation in this study is completely voluntary and you can withdraw at any time. Choosing not to participate or withdrawing will result in no penalty or loss of benefits to which you are entitled. Research sometimes requires that information regarding its purpose not be shared with the research participants because its knowledge could impact the results of the research. 
        Note that none of the aspects of the research being withheld are reasonably expected to affect your willingness to take part. While the tasks you will be asked to perform for this research have been explained, the full intent of the research will not be provided until the completion of the study. At that time, you will have the opportunity to ask questions, including about the purpose of the study and the procedures used, and withdraw your data if you so choose.
        If you have questions about this project or if you have a research-related problem, you may contact the researcher(s), Michael McCullough, Ph.D., Department of Psychology, University of California, San Diego, 9500 Gilman Drive, La Jolla, CA 92093-0109 and by email at memccullough@ucsd.edu. If you have any questions concerning your rights as a research subject, you may contact the UC San Diego Office of IRB Administration at irb@ucsd.edu or 858-246-4777.
        By participating in this research, you are indicating that you are at least 18 years old, have read this consent form, and agree to participate in this research study. Please keep this consent form for your records.</p>
        <p>Do you consent?</p>","0","","","","","",""
"","","","","","html-button-response","2","2.0.0","22388","426gs9dswv","2026-02-16","852b","null","69938498f81719480e0e91d4","Pilot_1","4","4","8","0.40","8","0.40","6 ","2","8","1","study_description","4337","<h2>Study Description</h2>
                 <p style=""width: 900px; text-align: start"">Thank you for agreeing to participate in this study! This study seeks to understand how social interactions influence our decision-making processes.<br><br>
                 In this study, you will play a virtual ball-tossing game with two other participants. The game is designed to simulate social interactions and observe how they affect how you make decisions towards other people.<br><br>
                 The instructions for the game will be provided in the next section. To ensure that everyone understands the rules, there will be a short quiz. If you get any answers wrong, don't worry—you will have the opportunity to review the instructions and retake the quiz until you get all the answers correct.<br><br>
                 Please pay close attention to the game and try to engage with the other participants as naturally as possible.</p>","0","","","","","",""
"","","","","","html-button-response","3","2.0.0","59702","426gs9dswv","2026-02-16","852b","null","69938498f81719480e0e91d4","Pilot_1","4","4","8","0.40","8","0.40","6 ","2","8","1","game_instructions","37305","<h2>Game Instructions</h2>
                <p style=""width: 1000px; text-align: start"">In Cyberball there are three players: Standard Player 1 (SP1), Standard Player 2 (SP2), and a Treasurer. <b>You are SP1</b>.
                <br><br>
                Your objective in Cyberball is to earn points by tossing a ball. At the end of the game, the points will be converted into a monetary bonus. Each point you earn is worth $0.05. To help you keep track of points, there will be a scoreboard displayed in the top-right corner of the screen during the game.<br>
                The way the game works is that SP1 and SP2 individually earn points by tossing the ball to the Treasurer. Each time that SP1 or SP2 tossed the ball to the Treasurer, <u>the person who tossed the ball earns one point</u>. In other words, SP1 and SP2 earn points when they get the chance to toss the ball to the Treasurer. Of course, you could toss the ball to whomever you want, but you will only earn points when you pass the ball to the Treasurer.
                So, for example, if SP1 tosses the ball to the Treasurer, SP1 will earn one point and SP2 will not earn any points. Likewise, if SP2 tosses the ball to the Treasurer, SP2 will earn one point and SP1 will not earn anything. 
                <br><br>
                Keep in mind that SP1 and SP2 cannot earn points by tossing the ball to each other.
                SP1 and SP2 can only earn points by tossing the ball to the Treasurer. So, for example, if SP1 tosses the ball to SP2, neither SP1 or SP2 will earn any points. But whoever then throws the ball to the Treasurer will earn a point.</p>","0","","","","","",""
"","","","","","survey-multi-choice","4","2.1.0","73794","426gs9dswv","2026-02-16","852b","null","69938498f81719480e0e91d4","Pilot_1","4","4","8","0.40","8","0.40","6 ","2","8","1","comprehension_quiz","14076","","{""role"":""Standard Player 1 (SP1)"",""points"":""By tossing the ball to the Treasurer"",""passing"":""Yes"",""passing_points"":""0 points""}","[0,1,2,3]","true","","","",""
"","","","","","html-button-response","5","2.0.0","76774","426gs9dswv","2026-02-16","852b","null","69938498f81719480e0e91d4","Pilot_1","4","4","8","0.40","8","0.40","6 ","2","8","1","","2965","<p style=""color:green; font-weight:bold"">Great! You have answered all questions correctly. Let's move on to the game.</p><p>If you need a refresh on the instructions, please click the button <i>Open Cyberball Rules</i> on the top left corner of your screen.</p>","0","","","","","",""
"","","","","","call-function","6","null","76781","426gs9dswv","2026-02-16","852b","null","69938498f81719480e0e91d4","Pilot_1","4","4","8","0.40","8","0.40","6 ","2","8","1","","","","","","","","","",""
"","","","","","call-function","7","null","76794","426gs9dswv","2026-02-16","852b","null","69938498f81719480e0e91d4","Pilot_1","4","4","8","0.40","8","0.40","6 ","2","8","1","","","","","","","","","",""
"","","","","","html-keyboard-response","8","2.0.0","80167","426gs9dswv","2026-02-16","852b","null","69938498f81719480e0e91d4","Pilot_1","4","4","8","0.40","8","0.40","6 ","2","8","1","","","","","","","","Treasurer","SP2",""
"","","","","","html-keyboard-response","9","2.0.0","84485","426gs9dswv","2026-02-16","852b","null","69938498f81719480e0e91d4","Pilot_1","4","4","8","0.40","8","0.40","6 ","2","8","1","","","","","","","","SP2","Treasurer",""
"","","","","","html-keyboard-response","10","2.0.0","88448","426gs9dswv","2026-02-16","852b","null","69938498f81719480e0e91d4","Pilot_1","4","4","8","0.40","8","0.40","6 ","2","8","1","","","","","","","","Treasurer","SP1",""
"","","","","","html-keyboard-response","11","2.0.0","91868","426gs9dswv","2026-02-16","852b","null","69938498f81719480e0e91d4","Pilot_1","4","4","8","0.40","8","0.40","6 ","2","8","1","","","","","","","","SP1","Treasurer",""
"","","","","","html-keyboard-response","12","2.0.0","95484","426gs9dswv","2026-02-16","852b","null","69938498f81719480e0e91d4","Pilot_1","4","4","8","0.40","8","0.40","6 ","2","8","1","","","","","","","","Treasurer","SP2",""
"","","","","","html-keyboard-response","13","2.0.0","99485","426gs9dswv","2026-02-16","852b","null","69938498f81719480e0e91d4","Pilot_1","4","4","8","0.40","8","0.40","6 ","2","8","1","","","","","","","","SP2","Treasurer",""
"","","","","","html-keyboard-response","14","2.0.0","102964","426gs9dswv","2026-02-16","852b","null","69938498f81719480e0e91d4","Pilot_1","4","4","8","0.40","8","0.40","6 ","2","8","1","","","","","","","","Treasurer","SP2",""
"","","","","","html-keyboard-response","15","2.0.0","106247","426gs9dswv","2026-02-16","852b","null","69938498f81719480e0e91d4","Pilot_1","4","4","8","0.40","8","0.40","6 ","2","8","1","","","","","","","","SP2","Treasurer",""
"","","","","","html-keyboard-response","16","2.0.0","111012","426gs9dswv","2026-02-16","852b","null","69938498f81719480e0e91d4","Pilot_1","4","4","8","0.40","8","0.40","6 ","2","8","1","","","","","","","","Treasurer","SP1",""
"","","","","","html-keyboard-response","17","2.0.0","114065","426gs9dswv","2026-02-16","852b","null","69938498f81719480e0e91d4","Pilot_1","4","4","8","0.40","8","0.40","6 ","2","8","1","","","","","","","","SP1","Treasurer",""
"","","","","","html-keyboard-response","18","2.0.0","118232","426gs9dswv","2026-02-16","852b","null","69938498f81719480e0e91d4","Pilot_1","4","4","8","0.40","8","0.40","6 ","2","8","1","","","","","","","","Treasurer","SP2",""
"","","","","","html-keyboard-response","19","2.0.0","122633","426gs9dswv","2026-02-16","852b","null","69938498f81719480e0e91d4","Pilot_1","4","4","8","0.40","8","0.40","6 ","2","8","1","","","","","","","","SP2","Treasurer",""
"","","","","","html-keyboard-response","20","2.0.0","125880","426gs9dswv","2026-02-16","852b","null","69938498f81719480e0e91d4","Pilot_1","4","4","8","0.40","8","0.40","6 ","2","8","1","","","","","","","","Treasurer","SP2",""
"","","","","","html-keyboard-response","21","2.0.0","129133","426gs9dswv","2026-02-16","852b","null","69938498f81719480e0e91d4","Pilot_1","4","4","8","0.40","8","0.40","6 ","2","8","1","","","","","","","","SP2","Treasurer",""
"","","","","","html-keyboard-response","22","2.0.0","133713","426gs9dswv","2026-02-16","852b","null","69938498f81719480e0e91d4","Pilot_1","4","4","8","0.40","8","0.40","6 ","2","8","1","","","","","","","","Treasurer","SP1",""
"","","","","","html-keyboard-response","23","2.0.0","136433","426gs9dswv","2026-02-16","852b","null","69938498f81719480e0e91d4","Pilot_1","4","4","8","0.40","8","0.40","6 ","2","8","1","","","","","","","","SP1","Treasurer",""
"","","","","","html-keyboard-response","24","2.0.0","140531","426gs9dswv","2026-02-16","852b","null","69938498f81719480e0e91d4","Pilot_1","4","4","8","0.40","8","0.40","6 ","2","8","1","","","","","","","","Treasurer","SP2",""
"","","","","","html-keyboard-response","25","2.0.0","145648","426gs9dswv","2026-02-16","852b","null","69938498f81719480e0e91d4","Pilot_1","4","4","8","0.40","8","0.40","6 ","2","8","1","","","","","","","","SP2","SP1",""
"","","","","","html-keyboard-response","26","2.0.0","148380","426gs9dswv","2026-02-16","852b","null","69938498f81719480e0e91d4","Pilot_1","4","4","8","0.40","8","0.40","6 ","2","8","1","","","","","","","","SP1","Treasurer",""
"","","","","","html-keyboard-response","27","2.0.0","153481","426gs9dswv","2026-02-16","852b","null","69938498f81719480e0e91d4","Pilot_1","4","4","8","0.40","8","0.40","6 ","2","8","1","","","","","","","","Treasurer","SP2",""
"","","","","","html-keyboard-response","28","2.0.0","157816","426gs9dswv","2026-02-16","852b","null","69938498f81719480e0e91d4","Pilot_1","4","4","8","0.40","8","0.40","6 ","2","8","1","","","","","","","","SP2","Treasurer",""
"","","","","","html-keyboard-response","29","2.0.0","161561","426gs9dswv","2026-02-16","852b","null","69938498f81719480e0e91d4","Pilot_1","4","4","8","0.40","8","0.40","6 ","2","8","1","","","","","","","","Treasurer","SP1",""
"","","","","","html-keyboard-response","30","2.0.0","164296","426gs9dswv","2026-02-16","852b","null","69938498f81719480e0e91d4","Pilot_1","4","4","8","0.40","8","0.40","6 ","2","8","1","","","","","","","","SP1","Treasurer",""
"","","","","","html-keyboard-response","31","2.0.0","168328","426gs9dswv","2026-02-16","852b","null","69938498f81719480e0e91d4","Pilot_1","4","4","8","0.40","8","0.40","6 ","2","8","1","","","","","","","","Treasurer","SP2",""
"","","","","","html-keyboard-response","32","2.0.0","172661","426gs9dswv","2026-02-16","852b","null","69938498f81719480e0e91d4","Pilot_1","4","4","8","0.40","8","0.40","6 ","2","8","1","","","","","","","","SP2","SP1",""
"","","","","","html-keyboard-response","33","2.0.0","175010","426gs9dswv","2026-02-16","852b","null","69938498f81719480e0e91d4","Pilot_1","4","4","8","0.40","8","0.40","6 ","2","8","1","","","","","","","","SP1","Treasurer",""
"","","","","","html-keyboard-response","34","2.0.0","179844","426gs9dswv","2026-02-16","852b","null","69938498f81719480e0e91d4","Pilot_1","4","4","8","0.40","8","0.40","6 ","2","8","1","","","","","","","","Treasurer","SP2",""
"","","","","","html-keyboard-response","35","2.0.0","184578","426gs9dswv","2026-02-16","852b","null","69938498f81719480e0e91d4","Pilot_1","4","4","8","0.40","8","0.40","6 ","2","8","1","","","","","","","","SP2","Treasurer",""
"","","","","","html-keyboard-response","36","2.0.0","189210","426gs9dswv","2026-02-16","852b","null","69938498f81719480e0e91d4","Pilot_1","4","4","8","0.40","8","0.40","6 ","2","8","1","","","","","","","","Treasurer","SP2",""
"","","","","","html-keyboard-response","37","2.0.0","194076","426gs9dswv","2026-02-16","852b","null","69938498f81719480e0e91d4","Pilot_1","4","4","8","0.40","8","0.40","6 ","2","8","1","","","","","","","","SP2","Treasurer",""
"","","","","","html-keyboard-response","38","2.0.0","197811","426gs9dswv","2026-02-16","852b","null","69938498f81719480e0e91d4","Pilot_1","4","4","8","0.40","8","0.40","6 ","2","8","1","","","","","","","","Treasurer","SP2",""
"","","","","","html-keyboard-response","39","2.0.0","202760","426gs9dswv","2026-02-16","852b","null","69938498f81719480e0e91d4","Pilot_1","4","4","8","0.40","8","0.40","6 ","2","8","1","","","","","","","","SP2","SP1",""
"","","","","","html-keyboard-response","40","2.0.0","205477","426gs9dswv","2026-02-16","852b","null","69938498f81719480e0e91d4","Pilot_1","4","4","8","0.40","8","0.40","6 ","2","8","1","","","","","","","","SP1","Treasurer",""
"","","","","","html-keyboard-response","41","2.0.0","210477","426gs9dswv","2026-02-16","852b","null","69938498f81719480e0e91d4","Pilot_1","4","4","8","0.40","8","0.40","6 ","2","8","1","","","","","","","","Treasurer","SP2",""
"","","","","","html-keyboard-response","42","2.0.0","214195","426gs9dswv","2026-02-16","852b","null","69938498f81719480e0e91d4","Pilot_1","4","4","8","0.40","8","0.40","6 ","2","8","1","","","","","","","","SP2","SP1",""
"","","","","","html-keyboard-response","43","2.0.0","216828","426gs9dswv","2026-02-16","852b","null","69938498f81719480e0e91d4","Pilot_1","4","4","8","0.40","8","0.40","6 ","2","8","1","","","","","","","","SP1","Treasurer",""
"","","","","","html-button-response","44","2.0.0","221423","426gs9dswv","2026-02-16","852b","null","69938498f81719480e0e91d4","Pilot_1","4","4","8","0.40","8","0.40","6 ","2","8","1","end_game","4584","<h2>Game Over</h2>
              <p style=""width: 800px; text-align: start;"">The game has ended! You earned <b>8 points</b>, which is equivalent to <b>$0.40</b>.<br><br>
                Your fellow player, Standard Player 2, earned <b>8 points</b>, which is equivalent to <b>$0.40</b>.<br><br>
                Please click the button below to continue to the next part of the study.</p>","0","","","","","",""
"","","","","","survey-text","45","2.0.0","243556","426gs9dswv","2026-02-16","852b","null","69938498f81719480e0e91d4","Pilot_1","4","4","8","0.40","8","0.40","6 ","2","8","1","comprehension_check","22118","","{""SP1_ball_received_T"":""6 "",""SP1_ball_received_SP2"":""2"",""SP2_ball_received_T"":""8""}","","","","","",""
"","","","","","html-slider-response","46","2.0.0","269426","426gs9dswv","2026-02-16","852b","null","69938498f81719480e0e91d4","Pilot_1","4","4","8","0.40","8","0.40","6 ","2","8","1","","25860","
  <p style=""width: 1000px; padding: 10px"">
    You may choose to reduce SP2’s earnings by giving up some of your own earnings. This is a <u>one-time, one-sided decision</u>. This means only you make this decision; SP2 will not make a corresponding decision.<br><br>

    For every <b>$0.01</b> you give up, SP2’s earnings are reduced by <b>$0.05</b>.<br>
    For example, giving up <b>$0.03</b> reduces SP2’s earnings by <b>$0.15</b>. Choosing $0 means no change to either participant's earnings.<br>
    Earnings for either participant cannot go below <b>$0</b>.<br><br>

    You may move the slider below to see how different choices would affect both participants’ earnings. Moving the slider does not finalize your decision. Your decision is only locked in once you click 'Continue' and move on to the next task.<br><br>

    There is no correct or expected choice. Please use the slider to indicate how much of your own earnings you would like to give up in order to reduce SP2's earnings.
    </p>

  <div style=""
    display:flex;
    justify-content:center;
    gap:100px;
    margin:30px 0;
    align-items:flex-end;
  "">

    <div style=""text-align:center;"">
      <div id=""sp1-baseline"" style=""font-weight: bold; margin-bottom:6px;"">$0.00</div>
      <div id=""sp1-coins""></div>
      <div style=""margin-top:6px;"">You (SP1)</div>
    </div>

    <div style=""text-align:center;"">
      <div id=""sp2-baseline"" style=""font-weight: bold; margin-bottom:6px;"">$0.00</div>
      <div id=""sp2-coins""></div>
      <div style=""margin-top:6px;"">SP2</div>
    </div>

  </div>
  ","1","","","","","","0"
"","","","","","call-function","47","null","269432","426gs9dswv","2026-02-16","852b","null","69938498f81719480e0e91d4","Pilot_1","4","4","8","0.40","8","0.40","6 ","2","8","1","","","","","","","","","",""
"","","","","","survey-text","48","2.0.0","885073","426gs9dswv","2026-02-16","852b","null","69938498f81719480e0e91d4","Pilot_1","4","4","8","0.40","8","0.40","6 ","2","8","1","","615606","","{""dv1_OE_game_satisfaction"":""I am satisfied with how the game went. I thought I played well and paid a lot of attention to the rules and what was going on.  I also read the rules very clearly so had a good understanding of what was going on at all times and wanted to win a bonus."",""dv1_oe_playtime_satisfaction"":""I thought I would get to play more but the treasurer seemed to give SP2 the ball more than me.  While I didn't necessarily find this fair, I try and focus on doing my best rather than focus on things that are not within my control.  This allows me stays focussed on the task in hand."",""dv1_oe_earnings_satisfaction"":""I was satisfied with how much money I made.  It was explained that there was bonus potential at the beginning of the game which was great. I wanted to aim to make the most of my turns and play to obtain the best bonus possible which I feel I did."",""dv1_oe_treasurer_behavior"":""I did not like how the treasurer behaved. It did not meet my expectations.  I wished that they had allocated me the ball more fairly.  That way I would have had more opportunity to make a fair bonus such as SP2.  I wish they allocated the ball more equally between the players."",""dv1_oe_sp2_behavior"":""I think I did like how SP2 behaved. They took pity on me for the treasurer not allocating me the ball as much as them. That was why I allowed them to have an allocation of my bonus as I would not have earnt as much if they hadnot passed me the ball."",""dv1_oe_message_to_treasurer"":""I did not feel that they played the game fairly.  SP2 felt like the player that the treasurer made a piority which felt strange as i did not feel there was any need for bias from the treasurer that I experienced as they would not gain anything from not giving me the ball equally."",""dv1_oe_message_to_sp2"":""I would like to thank them for allocating me the ball more than the treasuer.  They recognised that I was not getting equal shot at the ball and I feel they wanted to help me.  they made sure that I could make some more bonus so I allocated them some of mine as a thank you.""}","","","","","",""
"","","","","","survey-likert","49","2.0.0","914431","426gs9dswv","2026-02-16","852b","null","69938498f81719480e0e91d4","Pilot_1","4","4","8","0.40","8","0.40","6 ","2","8","1","","29341","","{""dv2_praising"":5,""dv2_insulting"":1,""dv2_avoiding"":1,""dv2_become_friends"":5,""dv2_unkind_things"":0,""dv2_helping"":5,""dv2_complementing"":6,""dv2_favor"":6,""dv2_invite_fun"":5,""dv2_ignore"":1}","[0,1,2,3,4,5,6,7,8,9]","","","","",""
"","","","","","survey-likert","50","2.0.0","952117","426gs9dswv","2026-02-16","852b","null","69938498f81719480e0e91d4","Pilot_1","4","4","8","0.40","8","0.40","6 ","2","8","1","","37652","","{""dv3_state_envy"":1,""dv3_state_jealous"":0,""dv3_state_bitter"":0,""dv3_state_resentful"":0,""dv3_state_happy"":5,""dv3_state_compassionate"":5,""dv3_state_surprised"":5,""dv3_state_grateful"":5,""dv3_state_thankful"":6,""dv3_state_sad"":1,""dv3_state_upset"":1,""dv3_state_disappointed"":1,""dv3_state_annoyed"":0,""dv3_state_angry"":0,""dv3_state_shame"":0,""dv3_state_contempt"":0,""dv3_state_joy"":5,""dv3_state_irritated"":0}","[0,1,2,3,4,5,6,7,8,9,10,11,12,13,14,15,16,17]","","","","",""
"","","","","","survey-likert","51","2.0.0","984497","426gs9dswv","2026-02-16","852b","null","69938498f81719480e0e91d4","Pilot_1","4","4","8","0.40","8","0.40","6 ","2","8","1","","32355","","{""dv3a_felt_malicious_envy"":4,""dv3a_wish_received_more"":6,""dv3a_understood_rules"":6,""dv3a_results_happy"":2,""dv3a_attention_check_1"":1,""dv3a_felt_ignored"":5,""dv3a_performed_well"":5,""dv3a_game_unfair"":5,""dv3a_felt_excluded"":5,""dv3a_game_different"":6,""dv3a_felt_bad_others"":2}","[7,3,8,1,5,4,9,0,6,2,10]","","","","",""
"","","","","","survey-likert","52","2.0.0","1004618","426gs9dswv","2026-02-16","852b","null","69938498f81719480e0e91d4","Pilot_1","4","4","8","0.40","8","0.40","6 ","2","8","1","","20095","","{""dv3b_sp2_competition"":5,""dv3b_sp2_betrayal"":1,""dv3b_sp2_unfiar"":1,""dv3b_sp2_rival"":4,""dv3b_sp2_shared_goals"":5,""dv3b_sp2_take_winnings"":2,""dv3b_sp2_deservingness"":5,""dv3b_sp2_closeness"":5}","[5,1,2,7,6,3,4,0]","","","","",""
"","","","","","survey-likert","53","2.0.0","1020723","426gs9dswv","2026-02-16","852b","null","69938498f81719480e0e91d4","Pilot_1","4","4","8","0.40","8","0.40","6 ","2","8","1","","16087","","{""dv3c_treasurer_unfair"":6,""dv3b_treasurer_rival"":5,""dv3c_treasurer_closeness"":5,""dv3b_treasurer_competition"":4,""dv3c_treasurer_betrayal"":5,""dv3b_treasurer_shared_goals"":1}","[2,5,0,3,1,4]","","","","",""
"","","","","","survey-likert","54","2.0.0","1048507","426gs9dswv","2026-02-16","852b","null","69938498f81719480e0e91d4","Pilot_1","4","4","8","0.40","8","0.40","6 ","2","8","1","","27761","","{""dv4_rain_on_parade"":1,""dv4_trade_places_rev"":5,""dv4_angry_others_succeed"":1,""dv4_happy_friends_succeed_rev"":5,""dv4_content_with_self_rev"":5,""dv4_happy_others_succeed_rev"":5,""dv4_pain_friends_succeed"":1,""dv4_prefer_stranger_win"":1}","[0,1,2,3,4,5,6,7]","","","","",""
"","","","","","survey-multi-choice","55","2.1.0","1072418","426gs9dswv","2026-02-16","852b","null","69938498f81719480e0e91d4","Pilot_1","4","4","8","0.40","8","0.40","6 ","2","8","1","","23890","","{""demo_attention_check_2"":""1000+"",""demo_sex"":""Female"",""demo_gender"":""Woman"",""demo_education"":""Bachelor's degree (4-years)"",""demo_social_class"":""2 = lower middle"",""demo_marital_status"":""Never married""}","[0,1,2,3,4,5]","","","","",""
"","","","","","survey-text","56","2.0.0","1075414","426gs9dswv","2026-02-16","852b","null","69938498f81719480e0e91d4","Pilot_1","4","4","8","0.40","8","0.40","6 ","2","8","1","","2977","","{""demo_age"":""35""}","","","","","",""
"","","","","","survey-multi-select","57","null","1077954","426gs9dswv","2026-02-16","852b","null","69938498f81719480e0e91d4","Pilot_1","4","4","8","0.40","8","0.40","6 ","2","8","1","","2471","","{""demo_race"":[""White""]}","[0]","","","","",""
"","","","","","survey-likert","58","2.0.0","1083216","426gs9dswv","2026-02-16","852b","null","69938498f81719480e0e91d4","Pilot_1","4","4","8","0.40","8","0.40","6 ","2","8","1","","5246","","{""attention_check_3"":4}","[0]","","","","",""
"","","","","","survey-text","59","2.0.0","1109849","426gs9dswv","2026-02-16","852b","null","69938498f81719480e0e91d4","Pilot_1","4","4","8","0.40","8","0.40","6 ","2","8","1","","26612","","{""funnel1"":""seeing how i felt about selfish players"",""funnel2"":""to see how someone's unfair behaviour affected how i felt towards them"",""funnel3"":""no""}","","","","","",""
