"success","timeout","failed_images","failed_audio","failed_video","trial_type","trial_index","plugin_version","time_elapsed","subject_id","experiment_date","prolific_id_last4","study_id","session_id","version","condition","schedule","sp1Points","sp1Dollars","sp2Points","sp2Dollars","SP1_ball_received_T","SP1_ball_received_SP2","SP2_ball_received_T","burn_amount","task","rt","stimulus","response","question_order","correct","value","from","to","slider_start"
"true","false","[]","[]","[]","preload","0","2.0.0","51","7hdyev6s12","2026-02-16","b1aa","null","699384d8fbc60e2eda7729c9","Pilot_1","2","2","4","0.20","12","0.60","4","","12","10","","","","","","","","","",""
"","","","","","html-button-response","1","2.0.0","2549","7hdyev6s12","2026-02-16","b1aa","null","699384d8fbc60e2eda7729c9","Pilot_1","2","2","4","0.20","12","0.60","4","","12","10","consent","2496","
    <p style = ""text-align: start; width: 900px""> You are being invited to participate in a research study titled: The Influence of Social Interactions on Decision Making.<br><br>
        This study is being done by Michael McCullough, PhD (Principal Investigator) from UC San Diego. You were selected to participate in this study because you are a representative member of the society the investigators wish to study. 
        The purpose of this research study is to explore how nonverbal social interactions affect the way people talk to themselves. Your participation in this research should last no longer than 30 minutes. If you agree to take part in this study, you will be asked to complete several surveys that ask about your feelings, beliefs, judgments, and personal background.
        Your participation in this study is completely voluntary and you can withdraw at any time. Choosing not to participate or withdrawing will result in no penalty or loss of benefits to which you are entitled. Research sometimes requires that information regarding its purpose not be shared with the research participants because its knowledge could impact the results of the research. 
        Note that none of the aspects of the research being withheld are reasonably expected to affect your willingness to take part. While the tasks you will be asked to perform for this research have been explained, the full intent of the research will not be provided until the completion of the study. At that time, you will have the opportunity to ask questions, including about the purpose of the study and the procedures used, and withdraw your data if you so choose.
        If you have questions about this project or if you have a research-related problem, you may contact the researcher(s), Michael McCullough, Ph.D., Department of Psychology, University of California, San Diego, 9500 Gilman Drive, La Jolla, CA 92093-0109 and by email at memccullough@ucsd.edu. If you have any questions concerning your rights as a research subject, you may contact the UC San Diego Office of IRB Administration at irb@ucsd.edu or 858-246-4777.
        By participating in this research, you are indicating that you are at least 18 years old, have read this consent form, and agree to participate in this research study. Please keep this consent form for your records.</p>
        <p>Do you consent?</p>","0","","","","","",""
"","","","","","html-button-response","2","2.0.0","7569","7hdyev6s12","2026-02-16","b1aa","null","699384d8fbc60e2eda7729c9","Pilot_1","2","2","4","0.20","12","0.60","4","","12","10","study_description","5019","<h2>Study Description</h2>
                 <p style=""width: 900px; text-align: start"">Thank you for agreeing to participate in this study! This study seeks to understand how social interactions influence our decision-making processes.<br><br>
                 In this study, you will play a virtual ball-tossing game with two other participants. The game is designed to simulate social interactions and observe how they affect how you make decisions towards other people.<br><br>
                 The instructions for the game will be provided in the next section. To ensure that everyone understands the rules, there will be a short quiz. If you get any answers wrong, don't worry—you will have the opportunity to review the instructions and retake the quiz until you get all the answers correct.<br><br>
                 Please pay close attention to the game and try to engage with the other participants as naturally as possible.</p>","0","","","","","",""
"","","","","","html-button-response","3","2.0.0","62370","7hdyev6s12","2026-02-16","b1aa","null","699384d8fbc60e2eda7729c9","Pilot_1","2","2","4","0.20","12","0.60","4","","12","10","game_instructions","54800","<h2>Game Instructions</h2>
                <p style=""width: 1000px; text-align: start"">In Cyberball there are three players: Standard Player 1 (SP1), Standard Player 2 (SP2), and a Treasurer. <b>You are SP1</b>.
                    <br><br>
                    Your objective in Cyberball is to earn points by tossing a ball. At the end of the game, the points will be converted into a monetary bonus. Each point you earn is worth $0.05. To help you keep track of points, there will be a scoreboard displayed in the top-right corner of the screen during the game.<br>
                    <br>
                    The way the game works is that SP1 and SP2 individually earn points by tossing the ball to the Treasurer. Each time that SP1 or SP2 tossed the ball to the Treasurer, <u>the person who tossed the ball earns one point</u>. In other words, SP1 and SP2 earn points when they get the chance to toss the ball to the Treasurer.  
                    So, for example, if SP1 tosses the ball to the Treasurer, SP1 will earn one point and SP2 will not earn any points. Likewise, if SP2 tosses the ball to the Treasurer, SP2 will earn one point and SP1 will not earn anything. 
                    In this game, you are only allowed to pass the ball to the Treasurer. SP1 and SP2 are <b>not allowed</b> to pass the ball back and forth to each other.
                    <br><br>
                    <b>Keep in mind that SP1 and SP2 are not allowed to pass the ball to each other. You may only pass to the Treasurer.</b></p>","0","","","","","",""
"","","","","","survey-multi-choice","4","2.1.0","81810","7hdyev6s12","2026-02-16","b1aa","null","699384d8fbc60e2eda7729c9","Pilot_1","2","2","4","0.20","12","0.60","4","","12","10","comprehension_quiz","19437","","{""role"":""Standard Player 1 (SP1)"",""points"":""By tossing the ball to the Treasurer"",""passing"":""No"",""passing_points"":""Not allowed to pass to SP2""}","[0,1,2,3]","true","","","",""
"","","","","","html-button-response","5","2.0.0","85160","7hdyev6s12","2026-02-16","b1aa","null","699384d8fbc60e2eda7729c9","Pilot_1","2","2","4","0.20","12","0.60","4","","12","10","","3348","<p style=""color:green; font-weight:bold"">Great! You have answered all questions correctly. Let's move on to the game.</p><p>If you need a refresh on the instructions, please click the button <i>Open Cyberball Rules</i> on the top left corner of your screen.</p>","0","","","","","",""
"","","","","","call-function","6","null","85161","7hdyev6s12","2026-02-16","b1aa","null","699384d8fbc60e2eda7729c9","Pilot_1","2","2","4","0.20","12","0.60","4","","12","10","","","","","","","","","",""
"","","","","","call-function","7","null","85163","7hdyev6s12","2026-02-16","b1aa","null","699384d8fbc60e2eda7729c9","Pilot_1","2","2","4","0.20","12","0.60","4","","12","10","","","","","","","","","",""
"","","","","","html-keyboard-response","8","2.0.0","88429","7hdyev6s12","2026-02-16","b1aa","null","699384d8fbc60e2eda7729c9","Pilot_1","2","2","4","0.20","12","0.60","4","","12","10","","","","","","","","Treasurer","SP2",""
"","","","","","html-keyboard-response","9","2.0.0","93442","7hdyev6s12","2026-02-16","b1aa","null","699384d8fbc60e2eda7729c9","Pilot_1","2","2","4","0.20","12","0.60","4","","12","10","","","","","","","","SP2","Treasurer",""
"","","","","","html-keyboard-response","10","2.0.0","97004","7hdyev6s12","2026-02-16","b1aa","null","699384d8fbc60e2eda7729c9","Pilot_1","2","2","4","0.20","12","0.60","4","","12","10","","","","","","","","Treasurer","SP1",""
"","","","","","html-keyboard-response","11","2.0.0","101012","7hdyev6s12","2026-02-16","b1aa","null","699384d8fbc60e2eda7729c9","Pilot_1","2","2","4","0.20","12","0.60","4","","12","10","","","","","","","","SP1","Treasurer",""
"","","","","","html-keyboard-response","12","2.0.0","104938","7hdyev6s12","2026-02-16","b1aa","null","699384d8fbc60e2eda7729c9","Pilot_1","2","2","4","0.20","12","0.60","4","","12","10","","","","","","","","Treasurer","SP2",""
"","","","","","html-keyboard-response","13","2.0.0","109234","7hdyev6s12","2026-02-16","b1aa","null","699384d8fbc60e2eda7729c9","Pilot_1","2","2","4","0.20","12","0.60","4","","12","10","","","","","","","","SP2","Treasurer",""
"","","","","","html-keyboard-response","14","2.0.0","113876","7hdyev6s12","2026-02-16","b1aa","null","699384d8fbc60e2eda7729c9","Pilot_1","2","2","4","0.20","12","0.60","4","","12","10","","","","","","","","Treasurer","SP2",""
"","","","","","html-keyboard-response","15","2.0.0","117869","7hdyev6s12","2026-02-16","b1aa","null","699384d8fbc60e2eda7729c9","Pilot_1","2","2","4","0.20","12","0.60","4","","12","10","","","","","","","","SP2","Treasurer",""
"","","","","","html-keyboard-response","16","2.0.0","122874","7hdyev6s12","2026-02-16","b1aa","null","699384d8fbc60e2eda7729c9","Pilot_1","2","2","4","0.20","12","0.60","4","","12","10","","","","","","","","Treasurer","SP1",""
"","","","","","html-keyboard-response","17","2.0.0","126435","7hdyev6s12","2026-02-16","b1aa","null","699384d8fbc60e2eda7729c9","Pilot_1","2","2","4","0.20","12","0.60","4","","12","10","","","","","","","","SP1","Treasurer",""
"","","","","","html-keyboard-response","18","2.0.0","130503","7hdyev6s12","2026-02-16","b1aa","null","699384d8fbc60e2eda7729c9","Pilot_1","2","2","4","0.20","12","0.60","4","","12","10","","","","","","","","Treasurer","SP2",""
"","","","","","html-keyboard-response","19","2.0.0","135468","7hdyev6s12","2026-02-16","b1aa","null","699384d8fbc60e2eda7729c9","Pilot_1","2","2","4","0.20","12","0.60","4","","12","10","","","","","","","","SP2","Treasurer",""
"","","","","","html-keyboard-response","20","2.0.0","140163","7hdyev6s12","2026-02-16","b1aa","null","699384d8fbc60e2eda7729c9","Pilot_1","2","2","4","0.20","12","0.60","4","","12","10","","","","","","","","Treasurer","SP2",""
"","","","","","html-keyboard-response","21","2.0.0","145315","7hdyev6s12","2026-02-16","b1aa","null","699384d8fbc60e2eda7729c9","Pilot_1","2","2","4","0.20","12","0.60","4","","12","10","","","","","","","","SP2","Treasurer",""
"","","","","","html-keyboard-response","22","2.0.0","149851","7hdyev6s12","2026-02-16","b1aa","null","699384d8fbc60e2eda7729c9","Pilot_1","2","2","4","0.20","12","0.60","4","","12","10","","","","","","","","Treasurer","SP1",""
"","","","","","html-keyboard-response","23","2.0.0","152197","7hdyev6s12","2026-02-16","b1aa","null","699384d8fbc60e2eda7729c9","Pilot_1","2","2","4","0.20","12","0.60","4","","12","10","","","","","","","","SP1","Treasurer",""
"","","","","","html-keyboard-response","24","2.0.0","156145","7hdyev6s12","2026-02-16","b1aa","null","699384d8fbc60e2eda7729c9","Pilot_1","2","2","4","0.20","12","0.60","4","","12","10","","","","","","","","Treasurer","SP2",""
"","","","","","html-keyboard-response","25","2.0.0","160941","7hdyev6s12","2026-02-16","b1aa","null","699384d8fbc60e2eda7729c9","Pilot_1","2","2","4","0.20","12","0.60","4","","12","10","","","","","","","","SP2","Treasurer",""
"","","","","","html-keyboard-response","26","2.0.0","165808","7hdyev6s12","2026-02-16","b1aa","null","699384d8fbc60e2eda7729c9","Pilot_1","2","2","4","0.20","12","0.60","4","","12","10","","","","","","","","Treasurer","SP2",""
"","","","","","html-keyboard-response","27","2.0.0","169959","7hdyev6s12","2026-02-16","b1aa","null","699384d8fbc60e2eda7729c9","Pilot_1","2","2","4","0.20","12","0.60","4","","12","10","","","","","","","","SP2","Treasurer",""
"","","","","","html-keyboard-response","28","2.0.0","173694","7hdyev6s12","2026-02-16","b1aa","null","699384d8fbc60e2eda7729c9","Pilot_1","2","2","4","0.20","12","0.60","4","","12","10","","","","","","","","Treasurer","SP1",""
"","","","","","html-keyboard-response","29","2.0.0","176065","7hdyev6s12","2026-02-16","b1aa","null","699384d8fbc60e2eda7729c9","Pilot_1","2","2","4","0.20","12","0.60","4","","12","10","","","","","","","","SP1","Treasurer",""
"","","","","","html-keyboard-response","30","2.0.0","179494","7hdyev6s12","2026-02-16","b1aa","null","699384d8fbc60e2eda7729c9","Pilot_1","2","2","4","0.20","12","0.60","4","","12","10","","","","","","","","Treasurer","SP2",""
"","","","","","html-keyboard-response","31","2.0.0","183454","7hdyev6s12","2026-02-16","b1aa","null","699384d8fbc60e2eda7729c9","Pilot_1","2","2","4","0.20","12","0.60","4","","12","10","","","","","","","","SP2","Treasurer",""
"","","","","","html-keyboard-response","32","2.0.0","188568","7hdyev6s12","2026-02-16","b1aa","null","699384d8fbc60e2eda7729c9","Pilot_1","2","2","4","0.20","12","0.60","4","","12","10","","","","","","","","Treasurer","SP2",""
"","","","","","html-keyboard-response","33","2.0.0","192421","7hdyev6s12","2026-02-16","b1aa","null","699384d8fbc60e2eda7729c9","Pilot_1","2","2","4","0.20","12","0.60","4","","12","10","","","","","","","","SP2","Treasurer",""
"","","","","","html-keyboard-response","34","2.0.0","195685","7hdyev6s12","2026-02-16","b1aa","null","699384d8fbc60e2eda7729c9","Pilot_1","2","2","4","0.20","12","0.60","4","","12","10","","","","","","","","Treasurer","SP2",""
"","","","","","html-keyboard-response","35","2.0.0","199596","7hdyev6s12","2026-02-16","b1aa","null","699384d8fbc60e2eda7729c9","Pilot_1","2","2","4","0.20","12","0.60","4","","12","10","","","","","","","","SP2","Treasurer",""
"","","","","","html-keyboard-response","36","2.0.0","204111","7hdyev6s12","2026-02-16","b1aa","null","699384d8fbc60e2eda7729c9","Pilot_1","2","2","4","0.20","12","0.60","4","","12","10","","","","","","","","Treasurer","SP2",""
"","","","","","html-keyboard-response","37","2.0.0","208985","7hdyev6s12","2026-02-16","b1aa","null","699384d8fbc60e2eda7729c9","Pilot_1","2","2","4","0.20","12","0.60","4","","12","10","","","","","","","","SP2","Treasurer",""
"","","","","","html-keyboard-response","38","2.0.0","213913","7hdyev6s12","2026-02-16","b1aa","null","699384d8fbc60e2eda7729c9","Pilot_1","2","2","4","0.20","12","0.60","4","","12","10","","","","","","","","Treasurer","SP2",""
"","","","","","html-keyboard-response","39","2.0.0","218410","7hdyev6s12","2026-02-16","b1aa","null","699384d8fbc60e2eda7729c9","Pilot_1","2","2","4","0.20","12","0.60","4","","12","10","","","","","","","","SP2","Treasurer",""
"","","","","","html-button-response","40","2.0.0","224451","7hdyev6s12","2026-02-16","b1aa","null","699384d8fbc60e2eda7729c9","Pilot_1","2","2","4","0.20","12","0.60","4","","12","10","end_game","6040","<h2>Game Over</h2>
              <p style=""width: 800px; text-align: start;"">The game has ended! You earned <b>4 points</b>, which is equivalent to <b>$0.20</b>.<br><br>
                Your fellow player, Standard Player 2, earned <b>12 points</b>, which is equivalent to <b>$0.60</b>.<br><br>
                Please click the button below to continue to the next part of the study.</p>","0","","","","","",""
"","","","","","survey-text","41","2.0.0","234071","7hdyev6s12","2026-02-16","b1aa","null","699384d8fbc60e2eda7729c9","Pilot_1","2","2","4","0.20","12","0.60","4","","12","10","comprehension_check","9616","","{""SP1_ball_received_T"":""4"",""SP2_ball_received_T"":""12""}","","","","","",""
"","","","","","html-slider-response","42","2.0.0","300170","7hdyev6s12","2026-02-16","b1aa","null","699384d8fbc60e2eda7729c9","Pilot_1","2","2","4","0.20","12","0.60","4","","12","10","","66098","
  <p style=""width: 1000px; padding: 10px"">
    You may choose to reduce SP2’s earnings by giving up some of your own earnings. This is a <u>one-time, one-sided decision</u>. This means only you make this decision; SP2 will not make a corresponding decision.<br><br>

    For every <b>$0.01</b> you give up, SP2’s earnings are reduced by <b>$0.05</b>.<br>
    For example, giving up <b>$0.03</b> reduces SP2’s earnings by <b>$0.15</b>. Choosing $0 means no change to either participant's earnings.<br>
    Earnings for either participant cannot go below <b>$0</b>.<br><br>

    You may move the slider below to see how different choices would affect both participants’ earnings. Moving the slider does not finalize your decision. Your decision is only locked in once you click 'Continue' and move on to the next task.<br><br>

    There is no correct or expected choice. Please use the slider to indicate how much of your own earnings you would like to give up in order to reduce SP2's earnings.
    </p>

  <div style=""
    display:flex;
    justify-content:center;
    gap:100px;
    margin:30px 0;
    align-items:flex-end;
  "">

    <div style=""text-align:center;"">
      <div id=""sp1-baseline"" style=""font-weight: bold; margin-bottom:6px;"">$0.00</div>
      <div id=""sp1-coins""></div>
      <div style=""margin-top:6px;"">You (SP1)</div>
    </div>

    <div style=""text-align:center;"">
      <div id=""sp2-baseline"" style=""font-weight: bold; margin-bottom:6px;"">$0.00</div>
      <div id=""sp2-coins""></div>
      <div style=""margin-top:6px;"">SP2</div>
    </div>

  </div>
  ","10","","","","","","0"
"","","","","","call-function","43","null","300172","7hdyev6s12","2026-02-16","b1aa","null","699384d8fbc60e2eda7729c9","Pilot_1","2","2","4","0.20","12","0.60","4","","12","10","","","","","","","","","",""
"","","","","","survey-text","44","2.0.0","1262391","7hdyev6s12","2026-02-16","b1aa","null","699384d8fbc60e2eda7729c9","Pilot_1","2","2","4","0.20","12","0.60","4","","12","10","","962210","","{""dv1_OE_game_satisfaction"":""No, I'm quite annoyed as I don't think it was fair, it was quite one sided in my view. I was not given a fair chance to earn a bonus. The treasurer just kept passing the ball to player two. Triple the times it was passed to me. Really annoyed.  "",""dv1_oe_playtime_satisfaction"":""No, player two was allowed to earn much more, there was no fair opportunity here. Player two was able to earn triple the amount I earned, I don't think that there was any fairness in that. Its not Player two's fault, but more the treasurers. I blame the treasurer as they should be mutual. if they can't then they should not be the treasurer. "",""dv1_oe_earnings_satisfaction"":""Not at all, $0.10 is nothing, and you can't do anything with it, you might as well donate it. As I mentioned earlier, there was no fair opportunity to earn a bonus here, which I was quite looking forward to, I really wanted to earn something meaningful. It's a damn right shame. "",""dv1_oe_treasurer_behavior"":""It did not meet my expectations and it was quite one sided. I am really disappointed in the treasurer, I think they should have been mutual and given a fair chance to both players to earn the bonus. I'm just really disappointed by their behaviour in the game, no fair opportunity at all.  "",""dv1_oe_sp2_behavior"":""I feel really guilty no for reducing their bonus when you ask me this, in truth, its not their fault, but I was just felt really annoyed. It is the treasurer fault for not being fair in the game. I punished an innocent person by taking away their bonus. Not good on my part. "",""dv1_oe_message_to_treasurer"":""I would have told them straight, this is very one sided and you have been Biased, I was left out and not given any opportunity to earn a bonus. You should have been mutual, you have been given the power to decide who earns what. Really disappointing indeed. You should be ashamed. "",""dv1_oe_message_to_sp2"":""I would have apologised for reducing their bonus. I was just really annoyed at the situation and felt it wasn’t fair. In the moment, I reacted poorly and I’m genuinely sorry for punishing you because of that. You didn’t deserve it, and I regret letting my frustration affect my decision and behaviour.""}","","","","","",""
"","","","","","survey-likert","45","2.0.0","1304020","7hdyev6s12","2026-02-16","b1aa","null","699384d8fbc60e2eda7729c9","Pilot_1","2","2","4","0.20","12","0.60","4","","12","10","","41626","","{""dv2_praising"":3,""dv2_insulting"":1,""dv2_avoiding"":5,""dv2_become_friends"":3,""dv2_unkind_things"":1,""dv2_helping"":5,""dv2_complementing"":5,""dv2_favor"":5,""dv2_invite_fun"":5,""dv2_ignore"":3}","[0,1,2,3,4,5,6,7,8,9]","","","","",""
"","","","","","survey-likert","46","2.0.0","1351280","7hdyev6s12","2026-02-16","b1aa","null","699384d8fbc60e2eda7729c9","Pilot_1","2","2","4","0.20","12","0.60","4","","12","10","","47257","","{""dv3_state_envy"":5,""dv3_state_jealous"":4,""dv3_state_bitter"":1,""dv3_state_resentful"":1,""dv3_state_happy"":3,""dv3_state_compassionate"":3,""dv3_state_surprised"":3,""dv3_state_grateful"":3,""dv3_state_thankful"":3,""dv3_state_sad"":3,""dv3_state_upset"":3,""dv3_state_disappointed"":3,""dv3_state_annoyed"":3,""dv3_state_angry"":3,""dv3_state_shame"":6,""dv3_state_contempt"":1,""dv3_state_joy"":1,""dv3_state_irritated"":3}","[0,1,2,3,4,5,6,7,8,9,10,11,12,13,14,15,16,17]","","","","",""
"","","","","","survey-likert","47","2.0.0","1388168","7hdyev6s12","2026-02-16","b1aa","null","699384d8fbc60e2eda7729c9","Pilot_1","2","2","4","0.20","12","0.60","4","","12","10","","36885","","{""dv3a_game_unfair"":6,""dv3a_felt_ignored"":5,""dv3a_game_different"":6,""dv3a_results_happy"":0,""dv3a_felt_excluded"":6,""dv3a_felt_bad_others"":0,""dv3a_performed_well"":0,""dv3a_felt_malicious_envy"":0,""dv3a_wish_received_more"":6,""dv3a_attention_check_1"":1,""dv3a_understood_rules"":6}","[0,4,2,1,6,10,9,7,3,5,8]","","","","",""
"","","","","","survey-likert","48","2.0.0","1423408","7hdyev6s12","2026-02-16","b1aa","null","699384d8fbc60e2eda7729c9","Pilot_1","2","2","4","0.20","12","0.60","4","","12","10","","35238","","{""dv3b_sp2_closeness"":1,""dv3b_sp2_competition"":6,""dv3b_sp2_deservingness"":5,""dv3b_sp2_take_winnings"":4,""dv3b_sp2_unfiar"":1,""dv3b_sp2_betrayal"":1,""dv3b_sp2_rival"":5,""dv3b_sp2_shared_goals"":5}","[0,5,4,3,2,1,7,6]","","","","",""
"","","","","","survey-likert","49","2.0.0","1455650","7hdyev6s12","2026-02-16","b1aa","null","699384d8fbc60e2eda7729c9","Pilot_1","2","2","4","0.20","12","0.60","4","","12","10","","32240","","{""dv3c_treasurer_unfair"":6,""dv3c_treasurer_closeness"":0,""dv3b_treasurer_rival"":4,""dv3b_treasurer_shared_goals"":3,""dv3c_treasurer_betrayal"":5,""dv3b_treasurer_competition"":3}","[2,0,5,4,1,3]","","","","",""
"","","","","","survey-likert","50","2.0.0","1505884","7hdyev6s12","2026-02-16","b1aa","null","699384d8fbc60e2eda7729c9","Pilot_1","2","2","4","0.20","12","0.60","4","","12","10","","50233","","{""dv4_rain_on_parade"":1,""dv4_trade_places_rev"":3,""dv4_angry_others_succeed"":4,""dv4_happy_friends_succeed_rev"":4,""dv4_content_with_self_rev"":3,""dv4_happy_others_succeed_rev"":4,""dv4_pain_friends_succeed"":3,""dv4_prefer_stranger_win"":3}","[0,1,2,3,4,5,6,7]","","","","",""
"","","","","","survey-multi-choice","51","2.1.0","1542421","7hdyev6s12","2026-02-16","b1aa","null","699384d8fbc60e2eda7729c9","Pilot_1","2","2","4","0.20","12","0.60","4","","12","10","","36534","","{""demo_attention_check_2"":""1000+"",""demo_sex"":""Male"",""demo_gender"":""Man"",""demo_education"":""Bachelor's degree (4-years)"",""demo_social_class"":""5 = upper class"",""demo_marital_status"":""Married/In a domestic partnership""}","[0,1,2,3,4,5]","","","","",""
"","","","","","survey-text","52","2.0.0","1548905","7hdyev6s12","2026-02-16","b1aa","null","699384d8fbc60e2eda7729c9","Pilot_1","2","2","4","0.20","12","0.60","4","","12","10","","6482","","{""demo_age"":""38""}","","","","","",""
"","","","","","survey-multi-select","53","null","1551336","7hdyev6s12","2026-02-16","b1aa","null","699384d8fbc60e2eda7729c9","Pilot_1","2","2","4","0.20","12","0.60","4","","12","10","","2427","","{""demo_race"":[""Asian""]}","[0]","","","","",""
"","","","","","survey-likert","54","2.0.0","1555893","7hdyev6s12","2026-02-16","b1aa","null","699384d8fbc60e2eda7729c9","Pilot_1","2","2","4","0.20","12","0.60","4","","12","10","","4555","","{""attention_check_3"":4}","[0]","","","","",""
"","","","","","survey-text","55","2.0.0","1607020","7hdyev6s12","2026-02-16","b1aa","null","699384d8fbc60e2eda7729c9","Pilot_1","2","2","4","0.20","12","0.60","4","","12","10","","51124","","{""funnel1"":""No idea"",""funnel2"":""Emotions of not being passed. "",""funnel3"":""No""}","","","","","",""
