"success","timeout","failed_images","failed_audio","failed_video","trial_type","trial_index","plugin_version","time_elapsed","subject_id","experiment_date","prolific_id_last4","study_id","session_id","version","condition","schedule","sp1Points","sp1Dollars","sp2Points","sp2Dollars","SP1_ball_received_T","SP1_ball_received_SP2","SP2_ball_received_T","burn_amount","task","rt","stimulus","response","question_order","correct","value","from","to","slider_start"
"true","false","[]","[]","[]","preload","0","2.0.0","1718","7ny1pvwzla","2026-02-13","c888","null","698f8d6a5e6abb98d8841e1b","Pilot_1","4","4","8","0.40","8","0.40","5","3","11","0","","","","","","","","","",""
"","","","","","html-button-response","1","2.0.0","10959","7ny1pvwzla","2026-02-13","c888","null","698f8d6a5e6abb98d8841e1b","Pilot_1","4","4","8","0.40","8","0.40","5","3","11","0","consent","9237","
    <p style = ""text-align: start; width: 900px""> You are being invited to participate in a research study titled: The Influence of Social Interactions on Decision Making.<br><br>
        This study is being done by Michael McCullough, PhD (Principal Investigator) from UC San Diego. You were selected to participate in this study because you are a representative member of the society the investigators wish to study. 
        The purpose of this research study is to explore how nonverbal social interactions affect the way people talk to themselves. Your participation in this research should last no longer than 30 minutes. If you agree to take part in this study, you will be asked to complete several surveys that ask about your feelings, beliefs, judgments, and personal background.
        Your participation in this study is completely voluntary and you can withdraw at any time. Choosing not to participate or withdrawing will result in no penalty or loss of benefits to which you are entitled. Research sometimes requires that information regarding its purpose not be shared with the research participants because its knowledge could impact the results of the research. 
        Note that none of the aspects of the research being withheld are reasonably expected to affect your willingness to take part. While the tasks you will be asked to perform for this research have been explained, the full intent of the research will not be provided until the completion of the study. At that time, you will have the opportunity to ask questions, including about the purpose of the study and the procedures used, and withdraw your data if you so choose.
        If you have questions about this project or if you have a research-related problem, you may contact the researcher(s), Michael McCullough, Ph.D., Department of Psychology, University of California, San Diego, 9500 Gilman Drive, La Jolla, CA 92093-0109 and by email at memccullough@ucsd.edu. If you have any questions concerning your rights as a research subject, you may contact the UC San Diego Office of IRB Administration at irb@ucsd.edu or 858-246-4777.
        By participating in this research, you are indicating that you are at least 18 years old, have read this consent form, and agree to participate in this research study. Please keep this consent form for your records.</p>
        <p>Do you consent?</p>","0","","","","","",""
"","","","","","html-button-response","2","2.0.0","41213","7ny1pvwzla","2026-02-13","c888","null","698f8d6a5e6abb98d8841e1b","Pilot_1","4","4","8","0.40","8","0.40","5","3","11","0","study_description","30252","<h2>Study Description</h2>
                 <p style=""width: 900px; text-align: start"">Thank you for agreeing to participate in this study! This study seeks to understand how social interactions influence our decision-making processes.<br><br>
                 In this study, you will play a virtual ball-tossing game with two other participants. The game is designed to simulate social interactions and observe how they affect how you make decisions towards other people.<br><br>
                 The instructions for the game will be provided in the next section. To ensure that everyone understands the rules, there will be a short quiz. If you get any answers wrong, don't worry—you will have the opportunity to review the instructions and retake the quiz until you get all the answers correct.<br><br>
                 Please pay close attention to the game and try to engage with the other participants as naturally as possible.</p>","0","","","","","",""
"","","","","","html-button-response","3","2.0.0","111974","7ny1pvwzla","2026-02-13","c888","null","698f8d6a5e6abb98d8841e1b","Pilot_1","4","4","8","0.40","8","0.40","5","3","11","0","game_instructions","70759","<h2>Game Instructions</h2>
                <p style=""width: 1000px; text-align: start"">In Cyberball there are three players: Standard Player 1 (SP1), Standard Player 2 (SP2), and a Treasurer. <b>You are SP1</b>.
                <br><br>
                Your objective in Cyberball is to earn points by tossing a ball. At the end of the game, the points will be converted into a monetary bonus. Each point you earn is worth $0.05. To help you keep track of points, there will be a scoreboard displayed in the top-right corner of the screen during the game.<br>
                The way the game works is that SP1 and SP2 individually earn points by tossing the ball to the Treasurer. Each time that SP1 or SP2 tossed the ball to the Treasurer, <u>the person who tossed the ball earns one point</u>. In other words, SP1 and SP2 earn points when they get the chance to toss the ball to the Treasurer. Of course, you could toss the ball to whomever you want, but you will only earn points when you pass the ball to the Treasurer.
                So, for example, if SP1 tosses the ball to the Treasurer, SP1 will earn one point and SP2 will not earn any points. Likewise, if SP2 tosses the ball to the Treasurer, SP2 will earn one point and SP1 will not earn anything. 
                <br><br>
                Keep in mind that SP1 and SP2 cannot earn points by tossing the ball to each other.
                SP1 and SP2 can only earn points by tossing the ball to the Treasurer. So, for example, if SP1 tosses the ball to SP2, neither SP1 or SP2 will earn any points. But whoever then throws the ball to the Treasurer will earn a point.</p>","0","","","","","",""
"","","","","","survey-multi-choice","4","2.1.0","132245","7ny1pvwzla","2026-02-13","c888","null","698f8d6a5e6abb98d8841e1b","Pilot_1","4","4","8","0.40","8","0.40","5","3","11","0","comprehension_quiz","20268","","{""role"":""Standard Player 1 (SP1)"",""points"":""By tossing the ball to the Treasurer"",""passing"":""Yes"",""passing_points"":""0 points""}","[0,1,2,3]","true","","","",""
"","","","","","html-button-response","5","2.0.0","139051","7ny1pvwzla","2026-02-13","c888","null","698f8d6a5e6abb98d8841e1b","Pilot_1","4","4","8","0.40","8","0.40","5","3","11","0","","6804","<p style=""color:green; font-weight:bold"">Great! You have answered all questions correctly. Let's move on to the game.</p><p>If you need a refresh on the instructions, please click the button <i>Open Cyberball Rules</i> on the top left corner of your screen.</p>","0","","","","","",""
"","","","","","call-function","6","null","139053","7ny1pvwzla","2026-02-13","c888","null","698f8d6a5e6abb98d8841e1b","Pilot_1","4","4","8","0.40","8","0.40","5","3","11","0","","","","","","","","","",""
"","","","","","call-function","7","null","139057","7ny1pvwzla","2026-02-13","c888","null","698f8d6a5e6abb98d8841e1b","Pilot_1","4","4","8","0.40","8","0.40","5","3","11","0","","","","","","","","","",""
"","","","","","html-keyboard-response","8","2.0.0","143838","7ny1pvwzla","2026-02-13","c888","null","698f8d6a5e6abb98d8841e1b","Pilot_1","4","4","8","0.40","8","0.40","5","3","11","0","","","","","","","","Treasurer","SP2",""
"","","","","","html-keyboard-response","9","2.0.0","147777","7ny1pvwzla","2026-02-13","c888","null","698f8d6a5e6abb98d8841e1b","Pilot_1","4","4","8","0.40","8","0.40","5","3","11","0","","","","","","","","SP2","Treasurer",""
"","","","","","html-keyboard-response","10","2.0.0","151557","7ny1pvwzla","2026-02-13","c888","null","698f8d6a5e6abb98d8841e1b","Pilot_1","4","4","8","0.40","8","0.40","5","3","11","0","","","","","","","","Treasurer","SP1",""
"","","","","","html-keyboard-response","11","2.0.0","154044","7ny1pvwzla","2026-02-13","c888","null","698f8d6a5e6abb98d8841e1b","Pilot_1","4","4","8","0.40","8","0.40","5","3","11","0","","","","","","","","SP1","Treasurer",""
"","","","","","html-keyboard-response","12","2.0.0","158321","7ny1pvwzla","2026-02-13","c888","null","698f8d6a5e6abb98d8841e1b","Pilot_1","4","4","8","0.40","8","0.40","5","3","11","0","","","","","","","","Treasurer","SP2",""
"","","","","","html-keyboard-response","13","2.0.0","162271","7ny1pvwzla","2026-02-13","c888","null","698f8d6a5e6abb98d8841e1b","Pilot_1","4","4","8","0.40","8","0.40","5","3","11","0","","","","","","","","SP2","Treasurer",""
"","","","","","html-keyboard-response","14","2.0.0","166150","7ny1pvwzla","2026-02-13","c888","null","698f8d6a5e6abb98d8841e1b","Pilot_1","4","4","8","0.40","8","0.40","5","3","11","0","","","","","","","","Treasurer","SP2",""
"","","","","","html-keyboard-response","15","2.0.0","170555","7ny1pvwzla","2026-02-13","c888","null","698f8d6a5e6abb98d8841e1b","Pilot_1","4","4","8","0.40","8","0.40","5","3","11","0","","","","","","","","SP2","Treasurer",""
"","","","","","html-keyboard-response","16","2.0.0","174120","7ny1pvwzla","2026-02-13","c888","null","698f8d6a5e6abb98d8841e1b","Pilot_1","4","4","8","0.40","8","0.40","5","3","11","0","","","","","","","","Treasurer","SP1",""
"","","","","","html-keyboard-response","17","2.0.0","177043","7ny1pvwzla","2026-02-13","c888","null","698f8d6a5e6abb98d8841e1b","Pilot_1","4","4","8","0.40","8","0.40","5","3","11","0","","","","","","","","SP1","Treasurer",""
"","","","","","html-keyboard-response","18","2.0.0","182257","7ny1pvwzla","2026-02-13","c888","null","698f8d6a5e6abb98d8841e1b","Pilot_1","4","4","8","0.40","8","0.40","5","3","11","0","","","","","","","","Treasurer","SP2",""
"","","","","","html-keyboard-response","19","2.0.0","187461","7ny1pvwzla","2026-02-13","c888","null","698f8d6a5e6abb98d8841e1b","Pilot_1","4","4","8","0.40","8","0.40","5","3","11","0","","","","","","","","SP2","Treasurer",""
"","","","","","html-keyboard-response","20","2.0.0","190804","7ny1pvwzla","2026-02-13","c888","null","698f8d6a5e6abb98d8841e1b","Pilot_1","4","4","8","0.40","8","0.40","5","3","11","0","","","","","","","","Treasurer","SP2",""
"","","","","","html-keyboard-response","21","2.0.0","194883","7ny1pvwzla","2026-02-13","c888","null","698f8d6a5e6abb98d8841e1b","Pilot_1","4","4","8","0.40","8","0.40","5","3","11","0","","","","","","","","SP2","Treasurer",""
"","","","","","html-keyboard-response","22","2.0.0","199168","7ny1pvwzla","2026-02-13","c888","null","698f8d6a5e6abb98d8841e1b","Pilot_1","4","4","8","0.40","8","0.40","5","3","11","0","","","","","","","","Treasurer","SP1",""
"","","","","","html-keyboard-response","23","2.0.0","202322","7ny1pvwzla","2026-02-13","c888","null","698f8d6a5e6abb98d8841e1b","Pilot_1","4","4","8","0.40","8","0.40","5","3","11","0","","","","","","","","SP1","Treasurer",""
"","","","","","html-keyboard-response","24","2.0.0","205852","7ny1pvwzla","2026-02-13","c888","null","698f8d6a5e6abb98d8841e1b","Pilot_1","4","4","8","0.40","8","0.40","5","3","11","0","","","","","","","","Treasurer","SP2",""
"","","","","","html-keyboard-response","25","2.0.0","210739","7ny1pvwzla","2026-02-13","c888","null","698f8d6a5e6abb98d8841e1b","Pilot_1","4","4","8","0.40","8","0.40","5","3","11","0","","","","","","","","SP2","SP1",""
"","","","","","html-keyboard-response","26","2.0.0","213751","7ny1pvwzla","2026-02-13","c888","null","698f8d6a5e6abb98d8841e1b","Pilot_1","4","4","8","0.40","8","0.40","5","3","11","0","","","","","","","","SP1","Treasurer",""
"","","","","","html-keyboard-response","27","2.0.0","218739","7ny1pvwzla","2026-02-13","c888","null","698f8d6a5e6abb98d8841e1b","Pilot_1","4","4","8","0.40","8","0.40","5","3","11","0","","","","","","","","Treasurer","SP2",""
"","","","","","html-keyboard-response","28","2.0.0","223628","7ny1pvwzla","2026-02-13","c888","null","698f8d6a5e6abb98d8841e1b","Pilot_1","4","4","8","0.40","8","0.40","5","3","11","0","","","","","","","","SP2","Treasurer",""
"","","","","","html-keyboard-response","29","2.0.0","227351","7ny1pvwzla","2026-02-13","c888","null","698f8d6a5e6abb98d8841e1b","Pilot_1","4","4","8","0.40","8","0.40","5","3","11","0","","","","","","","","Treasurer","SP1",""
"","","","","","html-keyboard-response","30","2.0.0","230336","7ny1pvwzla","2026-02-13","c888","null","698f8d6a5e6abb98d8841e1b","Pilot_1","4","4","8","0.40","8","0.40","5","3","11","0","","","","","","","","SP1","Treasurer",""
"","","","","","html-keyboard-response","31","2.0.0","234162","7ny1pvwzla","2026-02-13","c888","null","698f8d6a5e6abb98d8841e1b","Pilot_1","4","4","8","0.40","8","0.40","5","3","11","0","","","","","","","","Treasurer","SP2",""
"","","","","","html-keyboard-response","32","2.0.0","239301","7ny1pvwzla","2026-02-13","c888","null","698f8d6a5e6abb98d8841e1b","Pilot_1","4","4","8","0.40","8","0.40","5","3","11","0","","","","","","","","SP2","SP1",""
"","","","","","html-keyboard-response","33","2.0.0","242257","7ny1pvwzla","2026-02-13","c888","null","698f8d6a5e6abb98d8841e1b","Pilot_1","4","4","8","0.40","8","0.40","5","3","11","0","","","","","","","","SP1","Treasurer",""
"","","","","","html-keyboard-response","34","2.0.0","246444","7ny1pvwzla","2026-02-13","c888","null","698f8d6a5e6abb98d8841e1b","Pilot_1","4","4","8","0.40","8","0.40","5","3","11","0","","","","","","","","Treasurer","SP2",""
"","","","","","html-keyboard-response","35","2.0.0","249830","7ny1pvwzla","2026-02-13","c888","null","698f8d6a5e6abb98d8841e1b","Pilot_1","4","4","8","0.40","8","0.40","5","3","11","0","","","","","","","","SP2","Treasurer",""
"","","","","","html-keyboard-response","36","2.0.0","253323","7ny1pvwzla","2026-02-13","c888","null","698f8d6a5e6abb98d8841e1b","Pilot_1","4","4","8","0.40","8","0.40","5","3","11","0","","","","","","","","Treasurer","SP2",""
"","","","","","html-keyboard-response","37","2.0.0","258346","7ny1pvwzla","2026-02-13","c888","null","698f8d6a5e6abb98d8841e1b","Pilot_1","4","4","8","0.40","8","0.40","5","3","11","0","","","","","","","","SP2","Treasurer",""
"","","","","","html-keyboard-response","38","2.0.0","262429","7ny1pvwzla","2026-02-13","c888","null","698f8d6a5e6abb98d8841e1b","Pilot_1","4","4","8","0.40","8","0.40","5","3","11","0","","","","","","","","Treasurer","SP2",""
"","","","","","html-keyboard-response","39","2.0.0","266985","7ny1pvwzla","2026-02-13","c888","null","698f8d6a5e6abb98d8841e1b","Pilot_1","4","4","8","0.40","8","0.40","5","3","11","0","","","","","","","","SP2","SP1",""
"","","","","","html-keyboard-response","40","2.0.0","269918","7ny1pvwzla","2026-02-13","c888","null","698f8d6a5e6abb98d8841e1b","Pilot_1","4","4","8","0.40","8","0.40","5","3","11","0","","","","","","","","SP1","Treasurer",""
"","","","","","html-keyboard-response","41","2.0.0","274317","7ny1pvwzla","2026-02-13","c888","null","698f8d6a5e6abb98d8841e1b","Pilot_1","4","4","8","0.40","8","0.40","5","3","11","0","","","","","","","","Treasurer","SP2",""
"","","","","","html-keyboard-response","42","2.0.0","277623","7ny1pvwzla","2026-02-13","c888","null","698f8d6a5e6abb98d8841e1b","Pilot_1","4","4","8","0.40","8","0.40","5","3","11","0","","","","","","","","SP2","SP1",""
"","","","","","html-keyboard-response","43","2.0.0","280612","7ny1pvwzla","2026-02-13","c888","null","698f8d6a5e6abb98d8841e1b","Pilot_1","4","4","8","0.40","8","0.40","5","3","11","0","","","","","","","","SP1","Treasurer",""
"","","","","","html-button-response","44","2.0.0","292300","7ny1pvwzla","2026-02-13","c888","null","698f8d6a5e6abb98d8841e1b","Pilot_1","4","4","8","0.40","8","0.40","5","3","11","0","end_game","11686","<h2>Game Over</h2>
              <p style=""width: 800px; text-align: start;"">The game has ended! You earned <b>8 points</b>, which is equivalent to <b>$0.40</b>.<br><br>
                Your fellow player, Standard Player 2, earned <b>8 points</b>, which is equivalent to <b>$0.40</b>.<br><br>
                Please click the button below to continue to the next part of the study.</p>","0","","","","","",""
"","","","","","survey-text","45","2.0.0","334448","7ny1pvwzla","2026-02-13","c888","null","698f8d6a5e6abb98d8841e1b","Pilot_1","4","4","8","0.40","8","0.40","5","3","11","0","comprehension_check","42143","","{""SP1_ball_received_T"":""5"",""SP1_ball_received_SP2"":""3"",""SP2_ball_received_T"":""11""}","","","","","",""
"","","","","","html-slider-response","46","2.0.0","398319","7ny1pvwzla","2026-02-13","c888","null","698f8d6a5e6abb98d8841e1b","Pilot_1","4","4","8","0.40","8","0.40","5","3","11","0","","63869","
  <p style=""width: 1000px; padding: 10px"">
    You may choose to reduce SP2’s earnings by giving up some of your own earnings. This is a <u>one-time, one-sided decision</u>. This means only you make this decision; SP2 will not make a corresponding decision.<br><br>

    For every <b>$0.01</b> you give up, SP2’s earnings are reduced by <b>$0.05</b>.<br>
    For example, giving up <b>$0.03</b> reduces SP2’s earnings by <b>$0.15</b>. Choosing $0 means no change to either participant's earnings.<br>
    Earnings for either participant cannot go below <b>$0</b>.<br><br>

    You may move the slider below to see how different choices would affect both participants’ earnings. Moving the slider does not finalize your decision. Your decision is only locked in once you click 'Continue' and move on to the next task.<br><br>

    There is no correct or expected choice. Please use the slider to indicate how much of your own earnings you would like to give up in order to reduce SP2's earnings.
    </p>

  <div style=""
    display:flex;
    justify-content:center;
    gap:100px;
    margin:30px 0;
    align-items:flex-end;
  "">

    <div style=""text-align:center;"">
      <div id=""sp1-baseline"" style=""font-weight: bold; margin-bottom:6px;"">$0.00</div>
      <div id=""sp1-coins""></div>
      <div style=""margin-top:6px;"">You (SP1)</div>
    </div>

    <div style=""text-align:center;"">
      <div id=""sp2-baseline"" style=""font-weight: bold; margin-bottom:6px;"">$0.00</div>
      <div id=""sp2-coins""></div>
      <div style=""margin-top:6px;"">SP2</div>
    </div>

  </div>
  ","0","","","","","","0"
"","","","","","call-function","47","null","398321","7ny1pvwzla","2026-02-13","c888","null","698f8d6a5e6abb98d8841e1b","Pilot_1","4","4","8","0.40","8","0.40","5","3","11","0","","","","","","","","","",""
"","","","","","survey-text","48","2.0.0","1404551","7ny1pvwzla","2026-02-13","c888","null","698f8d6a5e6abb98d8841e1b","Pilot_1","4","4","8","0.40","8","0.40","5","3","11","0","","1006218","","{""dv1_OE_game_satisfaction"":""I am satisfied on how the game went. This is because there was a fair play in the game between both players and the treasurer. Also, SP1 was also very gracious to throw some ball to me in order for me to earn more points in the game. Overall, it was a really good game and I am satisfied with the outcome."",""dv1_oe_playtime_satisfaction"":""I am satisfied with how much I got from the game. The game was a straight forward game without much complexity. It is a game that is easy to play and so I think the pay for the play was good. Also the game was not very long and this also increased my satisfaction."",""dv1_oe_earnings_satisfaction"":""I am satisfied with how much money I made. This is given to the fact that the play was not complex but an easy one and I did not have to spend much time on the play. I am satisfied with how much I was able to make in that short period of time."",""dv1_oe_treasurer_behavior"":""I think the treasurer played out the instructions they were given. I do not really like the way they behaved. This is because, they threw more ball to SP2 more than they did me SP1. I expected a fair behavior by making sure the ball was thrown evenly without favoring any player. I wish they were impartial with their throws."",""dv1_oe_sp2_behavior"":""The behavior of SP2 was really commendable during the play. I like how they behaved and this is due to the fact that they considered SP1 and threw balls to them so they can also ern points. Such behavior exceed my expectation and there is also nothing I wished they would have done differently."",""dv1_oe_message_to_treasurer"":""If I could speak to the treasure describing my reactions to how they played was played, I would express my dissatisfaction and frown at their behavior. I would point out the need to be fair and impartial and not favor a particular player over another in such games, I would also explain how it affected me in the game. "",""dv1_oe_message_to_sp2"":""If I could speak to SP2 I would express my gratitude on how well they played the game. I would commend them for their fairness and impartiality and also for carrying other player along in the game. I would commend their team spirit and the ability to work together for the success of the game.""}","","","","","",""
"","","","","","survey-likert","49","2.0.0","1441950","7ny1pvwzla","2026-02-13","c888","null","698f8d6a5e6abb98d8841e1b","Pilot_1","4","4","8","0.40","8","0.40","5","3","11","0","","37396","","{""dv2_praising"":6,""dv2_insulting"":0,""dv2_avoiding"":0,""dv2_become_friends"":6,""dv2_unkind_things"":0,""dv2_helping"":6,""dv2_complementing"":6,""dv2_favor"":6,""dv2_invite_fun"":6,""dv2_ignore"":0}","[0,1,2,3,4,5,6,7,8,9]","","","","",""
"","","","","","survey-likert","50","2.0.0","1491415","7ny1pvwzla","2026-02-13","c888","null","698f8d6a5e6abb98d8841e1b","Pilot_1","4","4","8","0.40","8","0.40","5","3","11","0","","49460","","{""dv3_state_envy"":0,""dv3_state_jealous"":0,""dv3_state_bitter"":0,""dv3_state_resentful"":0,""dv3_state_happy"":6,""dv3_state_compassionate"":6,""dv3_state_surprised"":5,""dv3_state_grateful"":6,""dv3_state_thankful"":6,""dv3_state_sad"":0,""dv3_state_upset"":0,""dv3_state_disappointed"":0,""dv3_state_annoyed"":0,""dv3_state_angry"":0,""dv3_state_shame"":0,""dv3_state_contempt"":0,""dv3_state_joy"":6,""dv3_state_irritated"":0}","[0,1,2,3,4,5,6,7,8,9,10,11,12,13,14,15,16,17]","","","","",""
"","","","","","survey-likert","51","2.0.0","1544989","7ny1pvwzla","2026-02-13","c888","null","698f8d6a5e6abb98d8841e1b","Pilot_1","4","4","8","0.40","8","0.40","5","3","11","0","","53569","","{""dv3a_game_different"":4,""dv3a_wish_received_more"":5,""dv3a_understood_rules"":6,""dv3a_performed_well"":5,""dv3a_felt_bad_others"":1,""dv3a_results_happy"":5,""dv3a_attention_check_1"":1,""dv3a_game_unfair"":4,""dv3a_felt_malicious_envy"":0,""dv3a_felt_ignored"":4,""dv3a_felt_excluded"":4}","[2,3,8,9,10,1,5,0,7,4,6]","","","","",""
"","","","","","survey-likert","52","2.0.0","1579604","7ny1pvwzla","2026-02-13","c888","null","698f8d6a5e6abb98d8841e1b","Pilot_1","4","4","8","0.40","8","0.40","5","3","11","0","","34612","","{""dv3b_sp2_unfiar"":0,""dv3b_sp2_betrayal"":0,""dv3b_sp2_competition"":0,""dv3b_sp2_closeness"":5,""dv3b_sp2_take_winnings"":1,""dv3b_sp2_deservingness"":6,""dv3b_sp2_rival"":1,""dv3b_sp2_shared_goals"":6}","[2,1,5,0,3,4,7,6]","","","","",""
"","","","","","survey-likert","53","2.0.0","1606282","7ny1pvwzla","2026-02-13","c888","null","698f8d6a5e6abb98d8841e1b","Pilot_1","4","4","8","0.40","8","0.40","5","3","11","0","","26676","","{""dv3b_treasurer_competition"":4,""dv3c_treasurer_closeness"":1,""dv3c_treasurer_betrayal"":5,""dv3b_treasurer_rival"":5,""dv3c_treasurer_unfair"":6,""dv3b_treasurer_shared_goals"":2}","[3,0,1,5,2,4]","","","","",""
"","","","","","survey-likert","54","2.0.0","1642164","7ny1pvwzla","2026-02-13","c888","null","698f8d6a5e6abb98d8841e1b","Pilot_1","4","4","8","0.40","8","0.40","5","3","11","0","","35879","","{""dv4_rain_on_parade"":1,""dv4_trade_places_rev"":1,""dv4_angry_others_succeed"":0,""dv4_happy_friends_succeed_rev"":6,""dv4_content_with_self_rev"":6,""dv4_happy_others_succeed_rev"":6,""dv4_pain_friends_succeed"":0,""dv4_prefer_stranger_win"":0}","[0,1,2,3,4,5,6,7]","","","","",""
"","","","","","survey-multi-choice","55","2.1.0","1737065","7ny1pvwzla","2026-02-13","c888","null","698f8d6a5e6abb98d8841e1b","Pilot_1","4","4","8","0.40","8","0.40","5","3","11","0","","94898","","{""demo_attention_check_2"":""1000+"",""demo_sex"":""Male"",""demo_gender"":""Man"",""demo_education"":""Bachelor's degree (4-years)"",""demo_social_class"":""3 = middle"",""demo_marital_status"":""Married/In a domestic partnership""}","[0,1,2,3,4,5]","","","","",""
"","","","","","survey-text","56","2.0.0","1741693","7ny1pvwzla","2026-02-13","c888","null","698f8d6a5e6abb98d8841e1b","Pilot_1","4","4","8","0.40","8","0.40","5","3","11","0","","4625","","{""demo_age"":""51""}","","","","","",""
"","","","","","survey-multi-select","57","null","1745359","7ny1pvwzla","2026-02-13","c888","null","698f8d6a5e6abb98d8841e1b","Pilot_1","4","4","8","0.40","8","0.40","5","3","11","0","","3663","","{""demo_race"":[""White""]}","[0]","","","","",""
"","","","","","survey-likert","58","2.0.0","1750967","7ny1pvwzla","2026-02-13","c888","null","698f8d6a5e6abb98d8841e1b","Pilot_1","4","4","8","0.40","8","0.40","5","3","11","0","","5607","","{""attention_check_3"":4}","[0]","","","","",""
"","","","","","survey-text","59","2.0.0","1810483","7ny1pvwzla","2026-02-13","c888","null","698f8d6a5e6abb98d8841e1b","Pilot_1","4","4","8","0.40","8","0.40","5","3","11","0","","59514","","{""funnel1"":""I think the study is about how people make decisions."",""funnel2"":""I think decision making in social interaction was the hypothesis."",""funnel3"":""It was an exciting and interesting study.""}","","","","","",""
