"success","timeout","failed_images","failed_audio","failed_video","trial_type","trial_index","plugin_version","time_elapsed","subject_id","experiment_date","prolific_id_last4","study_id","session_id","version","condition","schedule","sp1Points","sp1Dollars","sp2Points","sp2Dollars","SP1_ball_received_T","SP1_ball_received_SP2","SP2_ball_received_T","burn_amount","task","rt","stimulus","response","question_order","correct","value","from","to","slider_start"
"true","false","[]","[]","[]","preload","0","2.0.0","77","93wq2lhy31","2026-02-16","1778","null","6993846ac87d51d465a49174","Pilot_1","4","4","7","0.35","8","0.40","8","1","9","0","","","","","","","","","",""
"","","","","","html-button-response","1","2.0.0","2022","93wq2lhy31","2026-02-16","1778","null","6993846ac87d51d465a49174","Pilot_1","4","4","7","0.35","8","0.40","8","1","9","0","consent","1941","
    <p style = ""text-align: start; width: 900px""> You are being invited to participate in a research study titled: The Influence of Social Interactions on Decision Making.<br><br>
        This study is being done by Michael McCullough, PhD (Principal Investigator) from UC San Diego. You were selected to participate in this study because you are a representative member of the society the investigators wish to study. 
        The purpose of this research study is to explore how nonverbal social interactions affect the way people talk to themselves. Your participation in this research should last no longer than 30 minutes. If you agree to take part in this study, you will be asked to complete several surveys that ask about your feelings, beliefs, judgments, and personal background.
        Your participation in this study is completely voluntary and you can withdraw at any time. Choosing not to participate or withdrawing will result in no penalty or loss of benefits to which you are entitled. Research sometimes requires that information regarding its purpose not be shared with the research participants because its knowledge could impact the results of the research. 
        Note that none of the aspects of the research being withheld are reasonably expected to affect your willingness to take part. While the tasks you will be asked to perform for this research have been explained, the full intent of the research will not be provided until the completion of the study. At that time, you will have the opportunity to ask questions, including about the purpose of the study and the procedures used, and withdraw your data if you so choose.
        If you have questions about this project or if you have a research-related problem, you may contact the researcher(s), Michael McCullough, Ph.D., Department of Psychology, University of California, San Diego, 9500 Gilman Drive, La Jolla, CA 92093-0109 and by email at memccullough@ucsd.edu. If you have any questions concerning your rights as a research subject, you may contact the UC San Diego Office of IRB Administration at irb@ucsd.edu or 858-246-4777.
        By participating in this research, you are indicating that you are at least 18 years old, have read this consent form, and agree to participate in this research study. Please keep this consent form for your records.</p>
        <p>Do you consent?</p>","0","","","","","",""
"","","","","","html-button-response","2","2.0.0","3805","93wq2lhy31","2026-02-16","1778","null","6993846ac87d51d465a49174","Pilot_1","4","4","7","0.35","8","0.40","8","1","9","0","study_description","1781","<h2>Study Description</h2>
                 <p style=""width: 900px; text-align: start"">Thank you for agreeing to participate in this study! This study seeks to understand how social interactions influence our decision-making processes.<br><br>
                 In this study, you will play a virtual ball-tossing game with two other participants. The game is designed to simulate social interactions and observe how they affect how you make decisions towards other people.<br><br>
                 The instructions for the game will be provided in the next section. To ensure that everyone understands the rules, there will be a short quiz. If you get any answers wrong, don't worry—you will have the opportunity to review the instructions and retake the quiz until you get all the answers correct.<br><br>
                 Please pay close attention to the game and try to engage with the other participants as naturally as possible.</p>","0","","","","","",""
"","","","","","html-button-response","3","2.0.0","33055","93wq2lhy31","2026-02-16","1778","null","6993846ac87d51d465a49174","Pilot_1","4","4","7","0.35","8","0.40","8","1","9","0","game_instructions","29248","<h2>Game Instructions</h2>
                <p style=""width: 1000px; text-align: start"">In Cyberball there are three players: Standard Player 1 (SP1), Standard Player 2 (SP2), and a Treasurer. <b>You are SP1</b>.
                <br><br>
                Your objective in Cyberball is to earn points by tossing a ball. At the end of the game, the points will be converted into a monetary bonus. Each point you earn is worth $0.05. To help you keep track of points, there will be a scoreboard displayed in the top-right corner of the screen during the game.<br>
                The way the game works is that SP1 and SP2 individually earn points by tossing the ball to the Treasurer. Each time that SP1 or SP2 tossed the ball to the Treasurer, <u>the person who tossed the ball earns one point</u>. In other words, SP1 and SP2 earn points when they get the chance to toss the ball to the Treasurer. Of course, you could toss the ball to whomever you want, but you will only earn points when you pass the ball to the Treasurer.
                So, for example, if SP1 tosses the ball to the Treasurer, SP1 will earn one point and SP2 will not earn any points. Likewise, if SP2 tosses the ball to the Treasurer, SP2 will earn one point and SP1 will not earn anything. 
                <br><br>
                Keep in mind that SP1 and SP2 cannot earn points by tossing the ball to each other.
                SP1 and SP2 can only earn points by tossing the ball to the Treasurer. So, for example, if SP1 tosses the ball to SP2, neither SP1 or SP2 will earn any points. But whoever then throws the ball to the Treasurer will earn a point.</p>","0","","","","","",""
"","","","","","survey-multi-choice","4","2.1.0","41039","93wq2lhy31","2026-02-16","1778","null","6993846ac87d51d465a49174","Pilot_1","4","4","7","0.35","8","0.40","8","1","9","0","comprehension_quiz","7979","","{""role"":""Standard Player 1 (SP1)"",""points"":""By tossing the ball to the Treasurer"",""passing"":""Yes"",""passing_points"":""0 points""}","[0,1,2,3]","true","","","",""
"","","","","","html-button-response","5","2.0.0","42619","93wq2lhy31","2026-02-16","1778","null","6993846ac87d51d465a49174","Pilot_1","4","4","7","0.35","8","0.40","8","1","9","0","","1577","<p style=""color:green; font-weight:bold"">Great! You have answered all questions correctly. Let's move on to the game.</p><p>If you need a refresh on the instructions, please click the button <i>Open Cyberball Rules</i> on the top left corner of your screen.</p>","0","","","","","",""
"","","","","","call-function","6","null","42621","93wq2lhy31","2026-02-16","1778","null","6993846ac87d51d465a49174","Pilot_1","4","4","7","0.35","8","0.40","8","1","9","0","","","","","","","","","",""
"","","","","","call-function","7","null","42625","93wq2lhy31","2026-02-16","1778","null","6993846ac87d51d465a49174","Pilot_1","4","4","7","0.35","8","0.40","8","1","9","0","","","","","","","","","",""
"","","","","","html-keyboard-response","8","2.0.0","46502","93wq2lhy31","2026-02-16","1778","null","6993846ac87d51d465a49174","Pilot_1","4","4","7","0.35","8","0.40","8","1","9","0","","","","","","","","Treasurer","SP2",""
"","","","","","html-keyboard-response","9","2.0.0","51510","93wq2lhy31","2026-02-16","1778","null","6993846ac87d51d465a49174","Pilot_1","4","4","7","0.35","8","0.40","8","1","9","0","","","","","","","","SP2","Treasurer",""
"","","","","","html-keyboard-response","10","2.0.0","55740","93wq2lhy31","2026-02-16","1778","null","6993846ac87d51d465a49174","Pilot_1","4","4","7","0.35","8","0.40","8","1","9","0","","","","","","","","Treasurer","SP1",""
"","","","","","html-keyboard-response","11","2.0.0","59965","93wq2lhy31","2026-02-16","1778","null","6993846ac87d51d465a49174","Pilot_1","4","4","7","0.35","8","0.40","8","1","9","0","","","","","","","","SP1","Treasurer",""
"","","","","","html-keyboard-response","12","2.0.0","64602","93wq2lhy31","2026-02-16","1778","null","6993846ac87d51d465a49174","Pilot_1","4","4","7","0.35","8","0.40","8","1","9","0","","","","","","","","Treasurer","SP2",""
"","","","","","html-keyboard-response","13","2.0.0","69068","93wq2lhy31","2026-02-16","1778","null","6993846ac87d51d465a49174","Pilot_1","4","4","7","0.35","8","0.40","8","1","9","0","","","","","","","","SP2","Treasurer",""
"","","","","","html-keyboard-response","14","2.0.0","73720","93wq2lhy31","2026-02-16","1778","null","6993846ac87d51d465a49174","Pilot_1","4","4","7","0.35","8","0.40","8","1","9","0","","","","","","","","Treasurer","SP2",""
"","","","","","html-keyboard-response","15","2.0.0","78495","93wq2lhy31","2026-02-16","1778","null","6993846ac87d51d465a49174","Pilot_1","4","4","7","0.35","8","0.40","8","1","9","0","","","","","","","","SP2","Treasurer",""
"","","","","","html-keyboard-response","16","2.0.0","82019","93wq2lhy31","2026-02-16","1778","null","6993846ac87d51d465a49174","Pilot_1","4","4","7","0.35","8","0.40","8","1","9","0","","","","","","","","Treasurer","SP1",""
"","","","","","html-keyboard-response","17","2.0.0","84890","93wq2lhy31","2026-02-16","1778","null","6993846ac87d51d465a49174","Pilot_1","4","4","7","0.35","8","0.40","8","1","9","0","","","","","","","","SP1","Treasurer",""
"","","","","","html-keyboard-response","18","2.0.0","89579","93wq2lhy31","2026-02-16","1778","null","6993846ac87d51d465a49174","Pilot_1","4","4","7","0.35","8","0.40","8","1","9","0","","","","","","","","Treasurer","SP2",""
"","","","","","html-keyboard-response","19","2.0.0","94567","93wq2lhy31","2026-02-16","1778","null","6993846ac87d51d465a49174","Pilot_1","4","4","7","0.35","8","0.40","8","1","9","0","","","","","","","","SP2","Treasurer",""
"","","","","","html-keyboard-response","20","2.0.0","99663","93wq2lhy31","2026-02-16","1778","null","6993846ac87d51d465a49174","Pilot_1","4","4","7","0.35","8","0.40","8","1","9","0","","","","","","","","Treasurer","SP2",""
"","","","","","html-keyboard-response","21","2.0.0","103951","93wq2lhy31","2026-02-16","1778","null","6993846ac87d51d465a49174","Pilot_1","4","4","7","0.35","8","0.40","8","1","9","0","","","","","","","","SP2","Treasurer",""
"","","","","","html-keyboard-response","22","2.0.0","109032","93wq2lhy31","2026-02-16","1778","null","6993846ac87d51d465a49174","Pilot_1","4","4","7","0.35","8","0.40","8","1","9","0","","","","","","","","Treasurer","SP1",""
"","","","","","html-keyboard-response","23","2.0.0","115500","93wq2lhy31","2026-02-16","1778","null","6993846ac87d51d465a49174","Pilot_1","4","4","7","0.35","8","0.40","8","1","9","0","","","","","","","","SP1","SP2",""
"","","","","","html-keyboard-response","24","2.0.0","120385","93wq2lhy31","2026-02-16","1778","null","6993846ac87d51d465a49174","Pilot_1","4","4","7","0.35","8","0.40","8","1","9","0","","","","","","","","Treasurer","SP2",""
"","","","","","html-keyboard-response","25","2.0.0","124899","93wq2lhy31","2026-02-16","1778","null","6993846ac87d51d465a49174","Pilot_1","4","4","7","0.35","8","0.40","8","1","9","0","","","","","","","","SP2","SP1",""
"","","","","","html-keyboard-response","26","2.0.0","128369","93wq2lhy31","2026-02-16","1778","null","6993846ac87d51d465a49174","Pilot_1","4","4","7","0.35","8","0.40","8","1","9","0","","","","","","","","SP1","Treasurer",""
"","","","","","html-keyboard-response","27","2.0.0","133169","93wq2lhy31","2026-02-16","1778","null","6993846ac87d51d465a49174","Pilot_1","4","4","7","0.35","8","0.40","8","1","9","0","","","","","","","","Treasurer","SP2",""
"","","","","","html-keyboard-response","28","2.0.0","137398","93wq2lhy31","2026-02-16","1778","null","6993846ac87d51d465a49174","Pilot_1","4","4","7","0.35","8","0.40","8","1","9","0","","","","","","","","SP2","Treasurer",""
"","","","","","html-keyboard-response","29","2.0.0","142383","93wq2lhy31","2026-02-16","1778","null","6993846ac87d51d465a49174","Pilot_1","4","4","7","0.35","8","0.40","8","1","9","0","","","","","","","","Treasurer","SP1",""
"","","","","","html-keyboard-response","30","2.0.0","145300","93wq2lhy31","2026-02-16","1778","null","6993846ac87d51d465a49174","Pilot_1","4","4","7","0.35","8","0.40","8","1","9","0","","","","","","","","SP1","Treasurer",""
"","","","","","html-keyboard-response","31","2.0.0","149173","93wq2lhy31","2026-02-16","1778","null","6993846ac87d51d465a49174","Pilot_1","4","4","7","0.35","8","0.40","8","1","9","0","","","","","","","","Treasurer","SP2",""
"","","","","","html-keyboard-response","32","2.0.0","154085","93wq2lhy31","2026-02-16","1778","null","6993846ac87d51d465a49174","Pilot_1","4","4","7","0.35","8","0.40","8","1","9","0","","","","","","","","SP2","SP1",""
"","","","","","html-keyboard-response","33","2.0.0","156787","93wq2lhy31","2026-02-16","1778","null","6993846ac87d51d465a49174","Pilot_1","4","4","7","0.35","8","0.40","8","1","9","0","","","","","","","","SP1","Treasurer",""
"","","","","","html-keyboard-response","34","2.0.0","161638","93wq2lhy31","2026-02-16","1778","null","6993846ac87d51d465a49174","Pilot_1","4","4","7","0.35","8","0.40","8","1","9","0","","","","","","","","Treasurer","SP2",""
"","","","","","html-keyboard-response","35","2.0.0","165210","93wq2lhy31","2026-02-16","1778","null","6993846ac87d51d465a49174","Pilot_1","4","4","7","0.35","8","0.40","8","1","9","0","","","","","","","","SP2","Treasurer",""
"","","","","","html-keyboard-response","36","2.0.0","170094","93wq2lhy31","2026-02-16","1778","null","6993846ac87d51d465a49174","Pilot_1","4","4","7","0.35","8","0.40","8","1","9","0","","","","","","","","Treasurer","SP2",""
"","","","","","html-keyboard-response","37","2.0.0","173782","93wq2lhy31","2026-02-16","1778","null","6993846ac87d51d465a49174","Pilot_1","4","4","7","0.35","8","0.40","8","1","9","0","","","","","","","","SP2","Treasurer",""
"","","","","","html-keyboard-response","38","2.0.0","177900","93wq2lhy31","2026-02-16","1778","null","6993846ac87d51d465a49174","Pilot_1","4","4","7","0.35","8","0.40","8","1","9","0","","","","","","","","Treasurer","SP2",""
"","","","","","html-keyboard-response","39","2.0.0","181840","93wq2lhy31","2026-02-16","1778","null","6993846ac87d51d465a49174","Pilot_1","4","4","7","0.35","8","0.40","8","1","9","0","","","","","","","","SP2","SP1",""
"","","","","","html-keyboard-response","40","2.0.0","188448","93wq2lhy31","2026-02-16","1778","null","6993846ac87d51d465a49174","Pilot_1","4","4","7","0.35","8","0.40","8","1","9","0","","","","","","","","SP1","Treasurer",""
"","","","","","html-keyboard-response","41","2.0.0","192170","93wq2lhy31","2026-02-16","1778","null","6993846ac87d51d465a49174","Pilot_1","4","4","7","0.35","8","0.40","8","1","9","0","","","","","","","","Treasurer","SP2",""
"","","","","","html-keyboard-response","42","2.0.0","195963","93wq2lhy31","2026-02-16","1778","null","6993846ac87d51d465a49174","Pilot_1","4","4","7","0.35","8","0.40","8","1","9","0","","","","","","","","SP2","SP1",""
"","","","","","html-keyboard-response","43","2.0.0","200367","93wq2lhy31","2026-02-16","1778","null","6993846ac87d51d465a49174","Pilot_1","4","4","7","0.35","8","0.40","8","1","9","0","","","","","","","","SP1","Treasurer",""
"","","","","","html-button-response","44","2.0.0","209016","93wq2lhy31","2026-02-16","1778","null","6993846ac87d51d465a49174","Pilot_1","4","4","7","0.35","8","0.40","8","1","9","0","end_game","8647","<h2>Game Over</h2>
              <p style=""width: 800px; text-align: start;"">The game has ended! You earned <b>7 points</b>, which is equivalent to <b>$0.35</b>.<br><br>
                Your fellow player, Standard Player 2, earned <b>8 points</b>, which is equivalent to <b>$0.40</b>.<br><br>
                Please click the button below to continue to the next part of the study.</p>","0","","","","","",""
"","","","","","survey-text","45","2.0.0","227605","93wq2lhy31","2026-02-16","1778","null","6993846ac87d51d465a49174","Pilot_1","4","4","7","0.35","8","0.40","8","1","9","0","comprehension_check","18581","","{""SP1_ball_received_T"":""8"",""SP1_ball_received_SP2"":""1"",""SP2_ball_received_T"":""9""}","","","","","",""
"","","","","","html-slider-response","46","2.0.0","244970","93wq2lhy31","2026-02-16","1778","null","6993846ac87d51d465a49174","Pilot_1","4","4","7","0.35","8","0.40","8","1","9","0","","17361","
  <p style=""width: 1000px; padding: 10px"">
    You may choose to reduce SP2’s earnings by giving up some of your own earnings. This is a <u>one-time, one-sided decision</u>. This means only you make this decision; SP2 will not make a corresponding decision.<br><br>

    For every <b>$0.01</b> you give up, SP2’s earnings are reduced by <b>$0.05</b>.<br>
    For example, giving up <b>$0.03</b> reduces SP2’s earnings by <b>$0.15</b>. Choosing $0 means no change to either participant's earnings.<br>
    Earnings for either participant cannot go below <b>$0</b>.<br><br>

    You may move the slider below to see how different choices would affect both participants’ earnings. Moving the slider does not finalize your decision. Your decision is only locked in once you click 'Continue' and move on to the next task.<br><br>

    There is no correct or expected choice. Please use the slider to indicate how much of your own earnings you would like to give up in order to reduce SP2's earnings.
    </p>

  <div style=""
    display:flex;
    justify-content:center;
    gap:100px;
    margin:30px 0;
    align-items:flex-end;
  "">

    <div style=""text-align:center;"">
      <div id=""sp1-baseline"" style=""font-weight: bold; margin-bottom:6px;"">$0.00</div>
      <div id=""sp1-coins""></div>
      <div style=""margin-top:6px;"">You (SP1)</div>
    </div>

    <div style=""text-align:center;"">
      <div id=""sp2-baseline"" style=""font-weight: bold; margin-bottom:6px;"">$0.00</div>
      <div id=""sp2-coins""></div>
      <div style=""margin-top:6px;"">SP2</div>
    </div>

  </div>
  ","0","","","","","","0"
"","","","","","call-function","47","null","244971","93wq2lhy31","2026-02-16","1778","null","6993846ac87d51d465a49174","Pilot_1","4","4","7","0.35","8","0.40","8","1","9","0","","","","","","","","","",""
"","","","","","survey-text","48","2.0.0","808873","93wq2lhy31","2026-02-16","1778","null","6993846ac87d51d465a49174","Pilot_1","4","4","7","0.35","8","0.40","8","1","9","0","","563886","","{""dv1_OE_game_satisfaction"":""Yes, I was hoping our scores would be relatively similar, and they were. It was fair and I was satisfied with the amount of times I received the ball from the treasurer. I was surprised that SP2 passed to me at all, I was fully expecting to not receivee it. "",""dv1_oe_playtime_satisfaction"":""No. I wanted to pass the ball more. It felt like they were passing between themselves for a bit. So when I received it from the treasurer, I passed it to SP2 to see what would happen. That is when I finally received it from SP2, and felt more satisfied."",""dv1_oe_earnings_satisfaction"":""Yes. I was not expecting to make more than 10 cents, so the amount I got exceeded my expectations. I did not expect much from this, whether it be monetarily or something else. The money did not matter that much, I just wanted to have fun and see if it would be reciprocated."",""dv1_oe_treasurer_behavior"":""It felt like the treasurer and SP2 were playing catch with one another. I did not like it and it was annoying. I wish that we had just gone in a triangle, I feel like most people would have done that, so it felt like SP2 and the treasurer were not real people/"",""dv1_oe_sp2_behavior"":""I did not really care. I explained in the previous question my feelings about SP2 and the treasurer. The behavior seemed so abnormal that I am questioning if these are real people. It felt cruel and unfair in a way, but I tried not to let it affect me since it was a game."",""dv1_oe_message_to_treasurer"":""I would tell them I was confused why he kept passing the ball back to SP2 a few times in a row. We got a similar amount of money but the money didn't matter, I was getting aggravated. Why could you not just pass it equally between us? Instead of what you did."",""dv1_oe_message_to_sp2"":""I would say good game and then go on with my day. Something like, hey I am glad we played together. Were you feeling bored as well? I was feeling really bored espeially whenever the ball did not get to me. That is why I passed the ball to you.""}","","","","","",""
"","","","","","survey-likert","49","2.0.0","833325","93wq2lhy31","2026-02-16","1778","null","6993846ac87d51d465a49174","Pilot_1","4","4","7","0.35","8","0.40","8","1","9","0","","24447","","{""dv2_praising"":4,""dv2_insulting"":2,""dv2_avoiding"":2,""dv2_become_friends"":3,""dv2_unkind_things"":1,""dv2_helping"":3,""dv2_complementing"":3,""dv2_favor"":4,""dv2_invite_fun"":3,""dv2_ignore"":2}","[0,1,2,3,4,5,6,7,8,9]","","","","",""
"","","","","","survey-likert","50","2.0.0","868883","93wq2lhy31","2026-02-16","1778","null","6993846ac87d51d465a49174","Pilot_1","4","4","7","0.35","8","0.40","8","1","9","0","","35548","","{""dv3_state_envy"":1,""dv3_state_jealous"":1,""dv3_state_bitter"":2,""dv3_state_resentful"":1,""dv3_state_happy"":2,""dv3_state_compassionate"":2,""dv3_state_surprised"":4,""dv3_state_grateful"":1,""dv3_state_thankful"":1,""dv3_state_sad"":2,""dv3_state_upset"":2,""dv3_state_disappointed"":0,""dv3_state_annoyed"":2,""dv3_state_angry"":1,""dv3_state_shame"":1,""dv3_state_contempt"":2,""dv3_state_joy"":1,""dv3_state_irritated"":2}","[0,1,2,3,4,5,6,7,8,9,10,11,12,13,14,15,16,17]","","","","",""
"","","","","","survey-likert","51","2.0.0","886816","93wq2lhy31","2026-02-16","1778","null","6993846ac87d51d465a49174","Pilot_1","4","4","7","0.35","8","0.40","8","1","9","0","","17926","","{""dv3a_results_happy"":4,""dv3a_understood_rules"":4,""dv3a_felt_bad_others"":1,""dv3a_game_different"":4,""dv3a_felt_malicious_envy"":0,""dv3a_felt_excluded"":4,""dv3a_felt_ignored"":4,""dv3a_performed_well"":6,""dv3a_attention_check_1"":1,""dv3a_game_unfair"":4,""dv3a_wish_received_more"":4}","[1,8,10,2,7,6,4,9,5,0,3]","","","","",""
"","","","","","survey-likert","52","2.0.0","895025","93wq2lhy31","2026-02-16","1778","null","6993846ac87d51d465a49174","Pilot_1","4","4","7","0.35","8","0.40","8","1","9","0","","8203","","{""dv3b_sp2_shared_goals"":1,""dv3b_sp2_competition"":4,""dv3b_sp2_unfiar"":4,""dv3b_sp2_betrayal"":3,""dv3b_sp2_deservingness"":1,""dv3b_sp2_take_winnings"":1,""dv3b_sp2_closeness"":3,""dv3b_sp2_rival"":2}","[6,5,2,1,4,3,0,7]","","","","",""
"","","","","","survey-likert","53","2.0.0","899416","93wq2lhy31","2026-02-16","1778","null","6993846ac87d51d465a49174","Pilot_1","4","4","7","0.35","8","0.40","8","1","9","0","","4386","","{""dv3b_treasurer_rival"":0,""dv3c_treasurer_betrayal"":2,""dv3c_treasurer_closeness"":3,""dv3b_treasurer_competition"":3,""dv3c_treasurer_unfair"":1,""dv3b_treasurer_shared_goals"":3}","[5,1,0,3,2,4]","","","","",""
"","","","","","survey-likert","54","2.0.0","916893","93wq2lhy31","2026-02-16","1778","null","6993846ac87d51d465a49174","Pilot_1","4","4","7","0.35","8","0.40","8","1","9","0","","17471","","{""dv4_rain_on_parade"":1,""dv4_trade_places_rev"":0,""dv4_angry_others_succeed"":1,""dv4_happy_friends_succeed_rev"":1,""dv4_content_with_self_rev"":4,""dv4_happy_others_succeed_rev"":5,""dv4_pain_friends_succeed"":4,""dv4_prefer_stranger_win"":2}","[0,1,2,3,4,5,6,7]","","","","",""
"","","","","","survey-multi-choice","55","2.1.0","931495","93wq2lhy31","2026-02-16","1778","null","6993846ac87d51d465a49174","Pilot_1","4","4","7","0.35","8","0.40","8","1","9","0","","14595","","{""demo_attention_check_2"":""1000+"",""demo_sex"":""Male"",""demo_gender"":""Man"",""demo_education"":""Associate degree (2-years)"",""demo_social_class"":""3 = middle"",""demo_marital_status"":""Married/In a domestic partnership""}","[0,1,2,3,4,5]","","","","",""
"","","","","","survey-text","56","2.0.0","933291","93wq2lhy31","2026-02-16","1778","null","6993846ac87d51d465a49174","Pilot_1","4","4","7","0.35","8","0.40","8","1","9","0","","1791","","{""demo_age"":""21""}","","","","","",""
"","","","","","survey-multi-select","57","null","938046","93wq2lhy31","2026-02-16","1778","null","6993846ac87d51d465a49174","Pilot_1","4","4","7","0.35","8","0.40","8","1","9","0","","4743","","{""demo_race"":[""White"",""Asian""]}","[0]","","","","",""
"","","","","","survey-likert","58","2.0.0","943367","93wq2lhy31","2026-02-16","1778","null","6993846ac87d51d465a49174","Pilot_1","4","4","7","0.35","8","0.40","8","1","9","0","","5319","","{""attention_check_3"":4}","[0]","","","","",""
"","","","","","survey-text","59","2.0.0","952312","93wq2lhy31","2026-02-16","1778","null","6993846ac87d51d465a49174","Pilot_1","4","4","7","0.35","8","0.40","8","1","9","0","","8940","","{""funnel1"":""exclusion"",""funnel2"":""not sure"",""funnel3"":""""}","","","","","",""
