"success","timeout","failed_images","failed_audio","failed_video","trial_type","trial_index","plugin_version","time_elapsed","subject_id","experiment_date","prolific_id_last4","study_id","session_id","version","condition","schedule","sp1Points","sp1Dollars","sp2Points","sp2Dollars","SP1_ball_received_T","SP1_ball_received_SP2","SP2_ball_received_T","burn_amount","task","rt","stimulus","response","question_order","correct","value","from","to","slider_start"
"true","false","[]","[]","[]","preload","0","2.0.0","221","9ksxcrj4l2","2026-02-13","5208","null","698f8a9afcc972408dad0e83","Pilot_1","3","3","4","0.20","12","0.60","4","0","12","12","","","","","","","","","",""
"","","","","","html-button-response","1","2.0.0","34752","9ksxcrj4l2","2026-02-13","5208","null","698f8a9afcc972408dad0e83","Pilot_1","3","3","4","0.20","12","0.60","4","0","12","12","consent","34528","
    <p style = ""text-align: start; width: 900px""> You are being invited to participate in a research study titled: The Influence of Social Interactions on Decision Making.<br><br>
        This study is being done by Michael McCullough, PhD (Principal Investigator) from UC San Diego. You were selected to participate in this study because you are a representative member of the society the investigators wish to study. 
        The purpose of this research study is to explore how nonverbal social interactions affect the way people talk to themselves. Your participation in this research should last no longer than 30 minutes. If you agree to take part in this study, you will be asked to complete several surveys that ask about your feelings, beliefs, judgments, and personal background.
        Your participation in this study is completely voluntary and you can withdraw at any time. Choosing not to participate or withdrawing will result in no penalty or loss of benefits to which you are entitled. Research sometimes requires that information regarding its purpose not be shared with the research participants because its knowledge could impact the results of the research. 
        Note that none of the aspects of the research being withheld are reasonably expected to affect your willingness to take part. While the tasks you will be asked to perform for this research have been explained, the full intent of the research will not be provided until the completion of the study. At that time, you will have the opportunity to ask questions, including about the purpose of the study and the procedures used, and withdraw your data if you so choose.
        If you have questions about this project or if you have a research-related problem, you may contact the researcher(s), Michael McCullough, Ph.D., Department of Psychology, University of California, San Diego, 9500 Gilman Drive, La Jolla, CA 92093-0109 and by email at memccullough@ucsd.edu. If you have any questions concerning your rights as a research subject, you may contact the UC San Diego Office of IRB Administration at irb@ucsd.edu or 858-246-4777.
        By participating in this research, you are indicating that you are at least 18 years old, have read this consent form, and agree to participate in this research study. Please keep this consent form for your records.</p>
        <p>Do you consent?</p>","0","","","","","",""
"","","","","","html-button-response","2","2.0.0","67181","9ksxcrj4l2","2026-02-13","5208","null","698f8a9afcc972408dad0e83","Pilot_1","3","3","4","0.20","12","0.60","4","0","12","12","study_description","32428","<h2>Study Description</h2>
                 <p style=""width: 900px; text-align: start"">Thank you for agreeing to participate in this study! This study seeks to understand how social interactions influence our decision-making processes.<br><br>
                 In this study, you will play a virtual ball-tossing game with two other participants. The game is designed to simulate social interactions and observe how they affect how you make decisions towards other people.<br><br>
                 The instructions for the game will be provided in the next section. To ensure that everyone understands the rules, there will be a short quiz. If you get any answers wrong, don't worry—you will have the opportunity to review the instructions and retake the quiz until you get all the answers correct.<br><br>
                 Please pay close attention to the game and try to engage with the other participants as naturally as possible.</p>","0","","","","","",""
"","","","","","html-button-response","3","2.0.0","135877","9ksxcrj4l2","2026-02-13","5208","null","698f8a9afcc972408dad0e83","Pilot_1","3","3","4","0.20","12","0.60","4","0","12","12","game_instructions","68693","<h2>Game Instructions</h2>
                <p style=""width: 1000px; text-align: start"">In Cyberball there are three players: Standard Player 1 (SP1), Standard Player 2 (SP2), and a Treasurer. <b>You are SP1</b>.
                <br><br>
                Your objective in Cyberball is to earn points by tossing a ball. At the end of the game, the points will be converted into a monetary bonus. Each point you earn is worth $0.05. To help you keep track of points, there will be a scoreboard displayed in the top-right corner of the screen during the game.<br>
                <br>
                The way the game works is that SP1 and SP2 individually earn points by tossing the ball to the Treasurer. Each time that SP1 or SP2 tossed the ball to the Treasurer, <u>the person who tossed the ball earns one point</u>. In other words, SP1 and SP2 earn points when they get the chance to toss the ball to the Treasurer. Of course, you could toss the ball to whomever you want, but you will only earn points when you pass the ball to the Treasurer.
                So, for example, if SP1 tosses the ball to the Treasurer, SP1 will earn one point and SP2 will not earn any points. Likewise, if SP2 tosses the ball to the Treasurer, SP2 will earn one point and SP1 will not earn anything. 
                <br><br>
                Keep in mind that SP1 and SP2 cannot earn points by tossing the ball to each other.
                SP1 and SP2 can only earn points by tossing the ball to the Treasurer. So, for example, if SP1 tosses the ball to SP2, neither SP1 or SP2 will earn any points. But whoever then throws the ball to the Treasurer will earn a point.</p>","0","","","","","",""
"","","","","","survey-multi-choice","4","2.1.0","151499","9ksxcrj4l2","2026-02-13","5208","null","698f8a9afcc972408dad0e83","Pilot_1","3","3","4","0.20","12","0.60","4","0","12","12","comprehension_quiz","15606","","{""role"":""Standard Player 1 (SP1)"",""points"":""By tossing the ball to the Treasurer"",""passing"":""Yes"",""passing_points"":""0 points""}","[0,1,2,3]","true","","","",""
"","","","","","html-button-response","5","2.0.0","157202","9ksxcrj4l2","2026-02-13","5208","null","698f8a9afcc972408dad0e83","Pilot_1","3","3","4","0.20","12","0.60","4","0","12","12","","5700","<p style=""color:green; font-weight:bold"">Great! You have answered all questions correctly. Let's move on to the game.</p><p>If you need a refresh on the instructions, please click the button <i>Open Cyberball Rules</i> on the top left corner of your screen.</p>","0","","","","","",""
"","","","","","call-function","6","null","157212","9ksxcrj4l2","2026-02-13","5208","null","698f8a9afcc972408dad0e83","Pilot_1","3","3","4","0.20","12","0.60","4","0","12","12","","","","","","","","","",""
"","","","","","call-function","7","null","157215","9ksxcrj4l2","2026-02-13","5208","null","698f8a9afcc972408dad0e83","Pilot_1","3","3","4","0.20","12","0.60","4","0","12","12","","","","","","","","","",""
"","","","","","html-keyboard-response","8","2.0.0","161928","9ksxcrj4l2","2026-02-13","5208","null","698f8a9afcc972408dad0e83","Pilot_1","3","3","4","0.20","12","0.60","4","0","12","12","","","","","","","","Treasurer","SP2",""
"","","","","","html-keyboard-response","9","2.0.0","166620","9ksxcrj4l2","2026-02-13","5208","null","698f8a9afcc972408dad0e83","Pilot_1","3","3","4","0.20","12","0.60","4","0","12","12","","","","","","","","SP2","Treasurer",""
"","","","","","html-keyboard-response","10","2.0.0","171594","9ksxcrj4l2","2026-02-13","5208","null","698f8a9afcc972408dad0e83","Pilot_1","3","3","4","0.20","12","0.60","4","0","12","12","","","","","","","","Treasurer","SP1",""
"","","","","","html-keyboard-response","11","2.0.0","174779","9ksxcrj4l2","2026-02-13","5208","null","698f8a9afcc972408dad0e83","Pilot_1","3","3","4","0.20","12","0.60","4","0","12","12","","","","","","","","SP1","Treasurer",""
"","","","","","html-keyboard-response","12","2.0.0","179494","9ksxcrj4l2","2026-02-13","5208","null","698f8a9afcc972408dad0e83","Pilot_1","3","3","4","0.20","12","0.60","4","0","12","12","","","","","","","","Treasurer","SP2",""
"","","","","","html-keyboard-response","13","2.0.0","184662","9ksxcrj4l2","2026-02-13","5208","null","698f8a9afcc972408dad0e83","Pilot_1","3","3","4","0.20","12","0.60","4","0","12","12","","","","","","","","SP2","Treasurer",""
"","","","","","html-keyboard-response","14","2.0.0","188511","9ksxcrj4l2","2026-02-13","5208","null","698f8a9afcc972408dad0e83","Pilot_1","3","3","4","0.20","12","0.60","4","0","12","12","","","","","","","","Treasurer","SP2",""
"","","","","","html-keyboard-response","15","2.0.0","192378","9ksxcrj4l2","2026-02-13","5208","null","698f8a9afcc972408dad0e83","Pilot_1","3","3","4","0.20","12","0.60","4","0","12","12","","","","","","","","SP2","Treasurer",""
"","","","","","html-keyboard-response","16","2.0.0","196511","9ksxcrj4l2","2026-02-13","5208","null","698f8a9afcc972408dad0e83","Pilot_1","3","3","4","0.20","12","0.60","4","0","12","12","","","","","","","","Treasurer","SP1",""
"","","","","","html-keyboard-response","17","2.0.0","199695","9ksxcrj4l2","2026-02-13","5208","null","698f8a9afcc972408dad0e83","Pilot_1","3","3","4","0.20","12","0.60","4","0","12","12","","","","","","","","SP1","Treasurer",""
"","","","","","html-keyboard-response","18","2.0.0","203994","9ksxcrj4l2","2026-02-13","5208","null","698f8a9afcc972408dad0e83","Pilot_1","3","3","4","0.20","12","0.60","4","0","12","12","","","","","","","","Treasurer","SP2",""
"","","","","","html-keyboard-response","19","2.0.0","207761","9ksxcrj4l2","2026-02-13","5208","null","698f8a9afcc972408dad0e83","Pilot_1","3","3","4","0.20","12","0.60","4","0","12","12","","","","","","","","SP2","Treasurer",""
"","","","","","html-keyboard-response","20","2.0.0","212778","9ksxcrj4l2","2026-02-13","5208","null","698f8a9afcc972408dad0e83","Pilot_1","3","3","4","0.20","12","0.60","4","0","12","12","","","","","","","","Treasurer","SP2",""
"","","","","","html-keyboard-response","21","2.0.0","216861","9ksxcrj4l2","2026-02-13","5208","null","698f8a9afcc972408dad0e83","Pilot_1","3","3","4","0.20","12","0.60","4","0","12","12","","","","","","","","SP2","Treasurer",""
"","","","","","html-keyboard-response","22","2.0.0","220961","9ksxcrj4l2","2026-02-13","5208","null","698f8a9afcc972408dad0e83","Pilot_1","3","3","4","0.20","12","0.60","4","0","12","12","","","","","","","","Treasurer","SP1",""
"","","","","","html-keyboard-response","23","2.0.0","224111","9ksxcrj4l2","2026-02-13","5208","null","698f8a9afcc972408dad0e83","Pilot_1","3","3","4","0.20","12","0.60","4","0","12","12","","","","","","","","SP1","Treasurer",""
"","","","","","html-keyboard-response","24","2.0.0","228044","9ksxcrj4l2","2026-02-13","5208","null","698f8a9afcc972408dad0e83","Pilot_1","3","3","4","0.20","12","0.60","4","0","12","12","","","","","","","","Treasurer","SP2",""
"","","","","","html-keyboard-response","25","2.0.0","232461","9ksxcrj4l2","2026-02-13","5208","null","698f8a9afcc972408dad0e83","Pilot_1","3","3","4","0.20","12","0.60","4","0","12","12","","","","","","","","SP2","Treasurer",""
"","","","","","html-keyboard-response","26","2.0.0","235761","9ksxcrj4l2","2026-02-13","5208","null","698f8a9afcc972408dad0e83","Pilot_1","3","3","4","0.20","12","0.60","4","0","12","12","","","","","","","","Treasurer","SP2",""
"","","","","","html-keyboard-response","27","2.0.0","239861","9ksxcrj4l2","2026-02-13","5208","null","698f8a9afcc972408dad0e83","Pilot_1","3","3","4","0.20","12","0.60","4","0","12","12","","","","","","","","SP2","Treasurer",""
"","","","","","html-keyboard-response","28","2.0.0","244227","9ksxcrj4l2","2026-02-13","5208","null","698f8a9afcc972408dad0e83","Pilot_1","3","3","4","0.20","12","0.60","4","0","12","12","","","","","","","","Treasurer","SP1",""
"","","","","","html-keyboard-response","29","2.0.0","247763","9ksxcrj4l2","2026-02-13","5208","null","698f8a9afcc972408dad0e83","Pilot_1","3","3","4","0.20","12","0.60","4","0","12","12","","","","","","","","SP1","Treasurer",""
"","","","","","html-keyboard-response","30","2.0.0","251678","9ksxcrj4l2","2026-02-13","5208","null","698f8a9afcc972408dad0e83","Pilot_1","3","3","4","0.20","12","0.60","4","0","12","12","","","","","","","","Treasurer","SP2",""
"","","","","","html-keyboard-response","31","2.0.0","255378","9ksxcrj4l2","2026-02-13","5208","null","698f8a9afcc972408dad0e83","Pilot_1","3","3","4","0.20","12","0.60","4","0","12","12","","","","","","","","SP2","Treasurer",""
"","","","","","html-keyboard-response","32","2.0.0","259445","9ksxcrj4l2","2026-02-13","5208","null","698f8a9afcc972408dad0e83","Pilot_1","3","3","4","0.20","12","0.60","4","0","12","12","","","","","","","","Treasurer","SP2",""
"","","","","","html-keyboard-response","33","2.0.0","264028","9ksxcrj4l2","2026-02-13","5208","null","698f8a9afcc972408dad0e83","Pilot_1","3","3","4","0.20","12","0.60","4","0","12","12","","","","","","","","SP2","Treasurer",""
"","","","","","html-keyboard-response","34","2.0.0","268261","9ksxcrj4l2","2026-02-13","5208","null","698f8a9afcc972408dad0e83","Pilot_1","3","3","4","0.20","12","0.60","4","0","12","12","","","","","","","","Treasurer","SP2",""
"","","","","","html-keyboard-response","35","2.0.0","273111","9ksxcrj4l2","2026-02-13","5208","null","698f8a9afcc972408dad0e83","Pilot_1","3","3","4","0.20","12","0.60","4","0","12","12","","","","","","","","SP2","Treasurer",""
"","","","","","html-keyboard-response","36","2.0.0","276695","9ksxcrj4l2","2026-02-13","5208","null","698f8a9afcc972408dad0e83","Pilot_1","3","3","4","0.20","12","0.60","4","0","12","12","","","","","","","","Treasurer","SP2",""
"","","","","","html-keyboard-response","37","2.0.0","281445","9ksxcrj4l2","2026-02-13","5208","null","698f8a9afcc972408dad0e83","Pilot_1","3","3","4","0.20","12","0.60","4","0","12","12","","","","","","","","SP2","Treasurer",""
"","","","","","html-keyboard-response","38","2.0.0","285195","9ksxcrj4l2","2026-02-13","5208","null","698f8a9afcc972408dad0e83","Pilot_1","3","3","4","0.20","12","0.60","4","0","12","12","","","","","","","","Treasurer","SP2",""
"","","","","","html-keyboard-response","39","2.0.0","288828","9ksxcrj4l2","2026-02-13","5208","null","698f8a9afcc972408dad0e83","Pilot_1","3","3","4","0.20","12","0.60","4","0","12","12","","","","","","","","SP2","Treasurer",""
"","","","","","html-button-response","40","2.0.0","305679","9ksxcrj4l2","2026-02-13","5208","null","698f8a9afcc972408dad0e83","Pilot_1","3","3","4","0.20","12","0.60","4","0","12","12","end_game","16834","<h2>Game Over</h2>
              <p style=""width: 800px; text-align: start;"">The game has ended! You earned <b>4 points</b>, which is equivalent to <b>$0.20</b>.<br><br>
                Your fellow player, Standard Player 2, earned <b>12 points</b>, which is equivalent to <b>$0.60</b>.<br><br>
                Please click the button below to continue to the next part of the study.</p>","0","","","","","",""
"","","","","","survey-text","41","2.0.0","318451","9ksxcrj4l2","2026-02-13","5208","null","698f8a9afcc972408dad0e83","Pilot_1","3","3","4","0.20","12","0.60","4","0","12","12","comprehension_check","12753","","{""SP1_ball_received_T"":""4"",""SP1_ball_received_SP2"":""0"",""SP2_ball_received_T"":""12""}","","","","","",""
"","","","","","html-slider-response","42","2.0.0","399476","9ksxcrj4l2","2026-02-13","5208","null","698f8a9afcc972408dad0e83","Pilot_1","3","3","4","0.20","12","0.60","4","0","12","12","","81021","
  <p style=""width: 1000px; padding: 10px"">
    You may choose to reduce SP2’s earnings by giving up some of your own earnings. This is a <u>one-time, one-sided decision</u>. This means only you make this decision; SP2 will not make a corresponding decision.<br><br>

    For every <b>$0.01</b> you give up, SP2’s earnings are reduced by <b>$0.05</b>.<br>
    For example, giving up <b>$0.03</b> reduces SP2’s earnings by <b>$0.15</b>. Choosing $0 means no change to either participant's earnings.<br>
    Earnings for either participant cannot go below <b>$0</b>.<br><br>

    You may move the slider below to see how different choices would affect both participants’ earnings. Moving the slider does not finalize your decision. Your decision is only locked in once you click 'Continue' and move on to the next task.<br><br>

    There is no correct or expected choice. Please use the slider to indicate how much of your own earnings you would like to give up in order to reduce SP2's earnings.
    </p>

  <div style=""
    display:flex;
    justify-content:center;
    gap:100px;
    margin:30px 0;
    align-items:flex-end;
  "">

    <div style=""text-align:center;"">
      <div id=""sp1-baseline"" style=""font-weight: bold; margin-bottom:6px;"">$0.00</div>
      <div id=""sp1-coins""></div>
      <div style=""margin-top:6px;"">You (SP1)</div>
    </div>

    <div style=""text-align:center;"">
      <div id=""sp2-baseline"" style=""font-weight: bold; margin-bottom:6px;"">$0.00</div>
      <div id=""sp2-coins""></div>
      <div style=""margin-top:6px;"">SP2</div>
    </div>

  </div>
  ","12","","","","","","0"
"","","","","","call-function","43","null","399477","9ksxcrj4l2","2026-02-13","5208","null","698f8a9afcc972408dad0e83","Pilot_1","3","3","4","0.20","12","0.60","4","0","12","12","","","","","","","","","",""
"","","","","","survey-text","44","2.0.0","1344458","9ksxcrj4l2","2026-02-13","5208","null","698f8a9afcc972408dad0e83","Pilot_1","3","3","4","0.20","12","0.60","4","0","12","12","","944961","","{""dv1_OE_game_satisfaction"":""I was fine with it, although it became apparent the treasurer preferred the other player. At first it was more enjoyable however as time went on and I could see that the treasurer was passing to just one side it became a little annoying, until I was able to reduce there amount."",""dv1_oe_playtime_satisfaction"":""I would have preferred a little more, but I didn't take it too seriously. In terms of satisfaction though, I would say I had a small amount of satisfaction during the game and a larger amount after the game was done. Watching two players pass between each other isn't very fun."",""dv1_oe_earnings_satisfaction"":""As the stakes were not high I am fine with it, although its seems less of a chance game and more a preference game. As there didn't seem to be all that many rules set out or ethics etc. I didn't really know what to expect from the game I played."",""dv1_oe_treasurer_behavior"":""I had no expectations but it became obvious they preferred one side to the other. Did not need to be equal but some more balance would have been nicer. Even if it was from player two passing it to me in between then that would have been a better outcome."",""dv1_oe_sp2_behavior"":""As another player who was gaining a benefit from each return to the treasurer I understand, especially when its with strangers. I would have probably behaved in a similar way. I didn't really know what to expect form it until it then became more predictable about what they were going to do."",""dv1_oe_message_to_treasurer"":""I would have preferred to have more participation in the game, especially as you had a position of delegation. I was fine with it ultimately but it would have been nicer to have some more equalness within the game, even if it was just a little more equal than totally."",""dv1_oe_message_to_sp2"":""I may have done the same if I was having it passed to me every time, but a small equaling would have been great. I recognize the notion of wanting to help yourself, but it wouldn't have hurt to pass to me a few time to get some better standing.""}","","","","","",""
"","","","","","survey-likert","45","2.0.0","1405267","9ksxcrj4l2","2026-02-13","5208","null","698f8a9afcc972408dad0e83","Pilot_1","3","3","4","0.20","12","0.60","4","0","12","12","","60798","","{""dv2_praising"":1,""dv2_insulting"":3,""dv2_avoiding"":3,""dv2_become_friends"":2,""dv2_unkind_things"":3,""dv2_helping"":3,""dv2_complementing"":5,""dv2_favor"":2,""dv2_invite_fun"":3,""dv2_ignore"":3}","[0,1,2,3,4,5,6,7,8,9]","","","","",""
"","","","","","survey-likert","46","2.0.0","1455066","9ksxcrj4l2","2026-02-13","5208","null","698f8a9afcc972408dad0e83","Pilot_1","3","3","4","0.20","12","0.60","4","0","12","12","","49795","","{""dv3_state_envy"":4,""dv3_state_jealous"":3,""dv3_state_bitter"":0,""dv3_state_resentful"":0,""dv3_state_happy"":3,""dv3_state_compassionate"":3,""dv3_state_surprised"":4,""dv3_state_grateful"":0,""dv3_state_thankful"":0,""dv3_state_sad"":0,""dv3_state_upset"":0,""dv3_state_disappointed"":2,""dv3_state_annoyed"":3,""dv3_state_angry"":0,""dv3_state_shame"":0,""dv3_state_contempt"":0,""dv3_state_joy"":0,""dv3_state_irritated"":4}","[0,1,2,3,4,5,6,7,8,9,10,11,12,13,14,15,16,17]","","","","",""
"","","","","","survey-likert","47","2.0.0","1501670","9ksxcrj4l2","2026-02-13","5208","null","698f8a9afcc972408dad0e83","Pilot_1","3","3","4","0.20","12","0.60","4","0","12","12","","46600","","{""dv3a_wish_received_more"":5,""dv3a_felt_malicious_envy"":3,""dv3a_game_different"":4,""dv3a_felt_bad_others"":3,""dv3a_game_unfair"":5,""dv3a_attention_check_1"":1,""dv3a_understood_rules"":6,""dv3a_performed_well"":3,""dv3a_felt_ignored"":1,""dv3a_felt_excluded"":1,""dv3a_results_happy"":2}","[3,7,2,10,0,5,8,9,4,6,1]","","","","",""
"","","","","","survey-likert","48","2.0.0","1539264","9ksxcrj4l2","2026-02-13","5208","null","698f8a9afcc972408dad0e83","Pilot_1","3","3","4","0.20","12","0.60","4","0","12","12","","37591","","{""dv3b_sp2_take_winnings"":3,""dv3b_sp2_closeness"":0,""dv3b_sp2_shared_goals"":4,""dv3b_sp2_betrayal"":1,""dv3b_sp2_competition"":1,""dv3b_sp2_deservingness"":4,""dv3b_sp2_rival"":4,""dv3b_sp2_unfiar"":4}","[3,0,6,1,5,4,7,2]","","","","",""
"","","","","","survey-likert","49","2.0.0","1559250","9ksxcrj4l2","2026-02-13","5208","null","698f8a9afcc972408dad0e83","Pilot_1","3","3","4","0.20","12","0.60","4","0","12","12","","19984","","{""dv3c_treasurer_unfair"":6,""dv3c_treasurer_betrayal"":4,""dv3c_treasurer_closeness"":0,""dv3b_treasurer_rival"":4,""dv3b_treasurer_shared_goals"":1,""dv3b_treasurer_competition"":2}","[2,1,0,5,4,3]","","","","",""
"","","","","","survey-likert","50","2.0.0","1611444","9ksxcrj4l2","2026-02-13","5208","null","698f8a9afcc972408dad0e83","Pilot_1","3","3","4","0.20","12","0.60","4","0","12","12","","52191","","{""dv4_rain_on_parade"":4,""dv4_trade_places_rev"":3,""dv4_angry_others_succeed"":1,""dv4_happy_friends_succeed_rev"":6,""dv4_content_with_self_rev"":4,""dv4_happy_others_succeed_rev"":4,""dv4_pain_friends_succeed"":3,""dv4_prefer_stranger_win"":3}","[0,1,2,3,4,5,6,7]","","","","",""
"","","","","","survey-multi-choice","51","2.1.0","1649345","9ksxcrj4l2","2026-02-13","5208","null","698f8a9afcc972408dad0e83","Pilot_1","3","3","4","0.20","12","0.60","4","0","12","12","","37898","","{""demo_attention_check_2"":""1000+"",""demo_sex"":""Male"",""demo_gender"":""Man"",""demo_education"":""Associate degree (2-years)"",""demo_social_class"":""3 = middle"",""demo_marital_status"":""Never married""}","[0,1,2,3,4,5]","","","","",""
"","","","","","survey-text","52","2.0.0","1653625","9ksxcrj4l2","2026-02-13","5208","null","698f8a9afcc972408dad0e83","Pilot_1","3","3","4","0.20","12","0.60","4","0","12","12","","4268","","{""demo_age"":""30""}","","","","","",""
"","","","","","survey-multi-select","53","null","1659699","9ksxcrj4l2","2026-02-13","5208","null","698f8a9afcc972408dad0e83","Pilot_1","3","3","4","0.20","12","0.60","4","0","12","12","","6062","","{""demo_race"":[""White""]}","[0]","","","","",""
"","","","","","survey-likert","54","2.0.0","1665067","9ksxcrj4l2","2026-02-13","5208","null","698f8a9afcc972408dad0e83","Pilot_1","3","3","4","0.20","12","0.60","4","0","12","12","","5367","","{""attention_check_3"":4}","[0]","","","","",""
"","","","","","survey-text","55","2.0.0","1782419","9ksxcrj4l2","2026-02-13","5208","null","698f8a9afcc972408dad0e83","Pilot_1","3","3","4","0.20","12","0.60","4","0","12","12","","117348","","{""funnel1"":""Non verbal social communication"",""funnel2"":""Non verbal social exclusion / inclusion"",""funnel3"":""N/A""}","","","","","",""
