"success","timeout","failed_images","failed_audio","failed_video","trial_type","trial_index","plugin_version","time_elapsed","subject_id","experiment_date","prolific_id_last4","study_id","session_id","version","condition","schedule","sp1Points","sp1Dollars","sp2Points","sp2Dollars","SP1_ball_received_T","SP1_ball_received_SP2","SP2_ball_received_T","burn_amount","task","rt","stimulus","response","question_order","correct","value","from","to","slider_start"
"true","false","[]","[]","[]","preload","0","2.0.0","64","chn0ly2twt","2026-02-16","a0d7","null","6993847a830e8e751c1e17ce","Pilot_1","1","1","8","0.40","8","0.40","8","","8","5","","","","","","","","","",""
"","","","","","html-button-response","1","2.0.0","3841","chn0ly2twt","2026-02-16","a0d7","null","6993847a830e8e751c1e17ce","Pilot_1","1","1","8","0.40","8","0.40","8","","8","5","consent","3775","
    <p style = ""text-align: start; width: 900px""> You are being invited to participate in a research study titled: The Influence of Social Interactions on Decision Making.<br><br>
        This study is being done by Michael McCullough, PhD (Principal Investigator) from UC San Diego. You were selected to participate in this study because you are a representative member of the society the investigators wish to study. 
        The purpose of this research study is to explore how nonverbal social interactions affect the way people talk to themselves. Your participation in this research should last no longer than 30 minutes. If you agree to take part in this study, you will be asked to complete several surveys that ask about your feelings, beliefs, judgments, and personal background.
        Your participation in this study is completely voluntary and you can withdraw at any time. Choosing not to participate or withdrawing will result in no penalty or loss of benefits to which you are entitled. Research sometimes requires that information regarding its purpose not be shared with the research participants because its knowledge could impact the results of the research. 
        Note that none of the aspects of the research being withheld are reasonably expected to affect your willingness to take part. While the tasks you will be asked to perform for this research have been explained, the full intent of the research will not be provided until the completion of the study. At that time, you will have the opportunity to ask questions, including about the purpose of the study and the procedures used, and withdraw your data if you so choose.
        If you have questions about this project or if you have a research-related problem, you may contact the researcher(s), Michael McCullough, Ph.D., Department of Psychology, University of California, San Diego, 9500 Gilman Drive, La Jolla, CA 92093-0109 and by email at memccullough@ucsd.edu. If you have any questions concerning your rights as a research subject, you may contact the UC San Diego Office of IRB Administration at irb@ucsd.edu or 858-246-4777.
        By participating in this research, you are indicating that you are at least 18 years old, have read this consent form, and agree to participate in this research study. Please keep this consent form for your records.</p>
        <p>Do you consent?</p>","0","","","","","",""
"","","","","","html-button-response","2","2.0.0","5742","chn0ly2twt","2026-02-16","a0d7","null","6993847a830e8e751c1e17ce","Pilot_1","1","1","8","0.40","8","0.40","8","","8","5","study_description","1898","<h2>Study Description</h2>
                 <p style=""width: 900px; text-align: start"">Thank you for agreeing to participate in this study! This study seeks to understand how social interactions influence our decision-making processes.<br><br>
                 In this study, you will play a virtual ball-tossing game with two other participants. The game is designed to simulate social interactions and observe how they affect how you make decisions towards other people.<br><br>
                 The instructions for the game will be provided in the next section. To ensure that everyone understands the rules, there will be a short quiz. If you get any answers wrong, don't worry—you will have the opportunity to review the instructions and retake the quiz until you get all the answers correct.<br><br>
                 Please pay close attention to the game and try to engage with the other participants as naturally as possible.</p>","0","","","","","",""
"","","","","","html-button-response","3","2.0.0","15441","chn0ly2twt","2026-02-16","a0d7","null","6993847a830e8e751c1e17ce","Pilot_1","1","1","8","0.40","8","0.40","8","","8","5","game_instructions","9695","<h2>Game Instructions</h2>
                <p style=""width: 1000px; text-align: start"">In Cyberball there are three players: Standard Player 1 (SP1), Standard Player 2 (SP2), and a Treasurer. <b>You are SP1</b>.
                <br><br>
                Your objective in Cyberball is to earn points by tossing a ball. At the end of the game, the points will be converted into a monetary bonus. Each point you earn is worth $0.05. To help you keep track of points, there will be a scoreboard displayed in the top-right corner of the screen during the game.
                <br><br>
                The way the game works is that SP1 and SP2 individually earn points by tossing the ball to the Treasurer. Each time that SP1 or SP2 tossed the ball to the Treasurer, <u>the person who tossed the ball earns one point</u>. In other words, SP1 and SP2 earn points when they get the chance to toss the ball to the Treasurer.
                So, for example, if SP1 tosses the ball to the Treasurer, SP1 will earn one point and SP2 will not earn any points. Likewise, if SP2 tosses the ball to the Treasurer, SP2 will earn one point and SP1 will not earn anything. 
                <br><br>
                Keep in mind that SP1 and SP2 cannot earn points by tossing the ball to each other. SP1 and SP2 can only earn points by tossing the ball to the Treasurer.</p>","0","","","","","",""
"","","","","","survey-multi-choice","4","2.1.0","27431","chn0ly2twt","2026-02-16","a0d7","null","6993847a830e8e751c1e17ce","Pilot_1","1","1","8","0.40","8","0.40","8","","8","5","comprehension_quiz","11984","","{""role"":""Standard Player 1 (SP1)"",""points"":""By tossing the ball to the Treasurer"",""passing"":""Yes"",""passing_points"":""0 points""}","[0,1,2,3]","true","","","",""
"","","","","","html-button-response","5","2.0.0","29031","chn0ly2twt","2026-02-16","a0d7","null","6993847a830e8e751c1e17ce","Pilot_1","1","1","8","0.40","8","0.40","8","","8","5","","1596","<p style=""color:green; font-weight:bold"">Great! You have answered all questions correctly. Let's move on to the game.</p><p>If you need a refresh on the instructions, please click the button <i>Open Cyberball Rules</i> on the top left corner of your screen.</p>","0","","","","","",""
"","","","","","call-function","6","null","29032","chn0ly2twt","2026-02-16","a0d7","null","6993847a830e8e751c1e17ce","Pilot_1","1","1","8","0.40","8","0.40","8","","8","5","","","","","","","","","",""
"","","","","","call-function","7","null","29033","chn0ly2twt","2026-02-16","a0d7","null","6993847a830e8e751c1e17ce","Pilot_1","1","1","8","0.40","8","0.40","8","","8","5","","","","","","","","","",""
"","","","","","html-keyboard-response","8","2.0.0","32630","chn0ly2twt","2026-02-16","a0d7","null","6993847a830e8e751c1e17ce","Pilot_1","1","1","8","0.40","8","0.40","8","","8","5","","","","","","","","Treasurer","SP2",""
"","","","","","html-keyboard-response","9","2.0.0","36331","chn0ly2twt","2026-02-16","a0d7","null","6993847a830e8e751c1e17ce","Pilot_1","1","1","8","0.40","8","0.40","8","","8","5","","","","","","","","SP2","Treasurer",""
"","","","","","html-keyboard-response","10","2.0.0","39713","chn0ly2twt","2026-02-16","a0d7","null","6993847a830e8e751c1e17ce","Pilot_1","1","1","8","0.40","8","0.40","8","","8","5","","","","","","","","Treasurer","SP1",""
"","","","","","html-keyboard-response","11","2.0.0","42697","chn0ly2twt","2026-02-16","a0d7","null","6993847a830e8e751c1e17ce","Pilot_1","1","1","8","0.40","8","0.40","8","","8","5","","","","","","","","SP1","Treasurer",""
"","","","","","html-keyboard-response","12","2.0.0","46613","chn0ly2twt","2026-02-16","a0d7","null","6993847a830e8e751c1e17ce","Pilot_1","1","1","8","0.40","8","0.40","8","","8","5","","","","","","","","Treasurer","SP2",""
"","","","","","html-keyboard-response","13","2.0.0","51163","chn0ly2twt","2026-02-16","a0d7","null","6993847a830e8e751c1e17ce","Pilot_1","1","1","8","0.40","8","0.40","8","","8","5","","","","","","","","SP2","Treasurer",""
"","","","","","html-keyboard-response","14","2.0.0","55163","chn0ly2twt","2026-02-16","a0d7","null","6993847a830e8e751c1e17ce","Pilot_1","1","1","8","0.40","8","0.40","8","","8","5","","","","","","","","Treasurer","SP1",""
"","","","","","html-keyboard-response","15","2.0.0","57563","chn0ly2twt","2026-02-16","a0d7","null","6993847a830e8e751c1e17ce","Pilot_1","1","1","8","0.40","8","0.40","8","","8","5","","","","","","","","SP1","Treasurer",""
"","","","","","html-keyboard-response","16","2.0.0","62345","chn0ly2twt","2026-02-16","a0d7","null","6993847a830e8e751c1e17ce","Pilot_1","1","1","8","0.40","8","0.40","8","","8","5","","","","","","","","Treasurer","SP1",""
"","","","","","html-keyboard-response","17","2.0.0","64729","chn0ly2twt","2026-02-16","a0d7","null","6993847a830e8e751c1e17ce","Pilot_1","1","1","8","0.40","8","0.40","8","","8","5","","","","","","","","SP1","Treasurer",""
"","","","","","html-keyboard-response","18","2.0.0","68278","chn0ly2twt","2026-02-16","a0d7","null","6993847a830e8e751c1e17ce","Pilot_1","1","1","8","0.40","8","0.40","8","","8","5","","","","","","","","Treasurer","SP2",""
"","","","","","html-keyboard-response","19","2.0.0","72611","chn0ly2twt","2026-02-16","a0d7","null","6993847a830e8e751c1e17ce","Pilot_1","1","1","8","0.40","8","0.40","8","","8","5","","","","","","","","SP2","Treasurer",""
"","","","","","html-keyboard-response","20","2.0.0","75844","chn0ly2twt","2026-02-16","a0d7","null","6993847a830e8e751c1e17ce","Pilot_1","1","1","8","0.40","8","0.40","8","","8","5","","","","","","","","Treasurer","SP1",""
"","","","","","html-keyboard-response","21","2.0.0","78177","chn0ly2twt","2026-02-16","a0d7","null","6993847a830e8e751c1e17ce","Pilot_1","1","1","8","0.40","8","0.40","8","","8","5","","","","","","","","SP1","Treasurer",""
"","","","","","html-keyboard-response","22","2.0.0","81543","chn0ly2twt","2026-02-16","a0d7","null","6993847a830e8e751c1e17ce","Pilot_1","1","1","8","0.40","8","0.40","8","","8","5","","","","","","","","Treasurer","SP2",""
"","","","","","html-keyboard-response","23","2.0.0","85026","chn0ly2twt","2026-02-16","a0d7","null","6993847a830e8e751c1e17ce","Pilot_1","1","1","8","0.40","8","0.40","8","","8","5","","","","","","","","SP2","Treasurer",""
"","","","","","html-keyboard-response","24","2.0.0","90175","chn0ly2twt","2026-02-16","a0d7","null","6993847a830e8e751c1e17ce","Pilot_1","1","1","8","0.40","8","0.40","8","","8","5","","","","","","","","Treasurer","SP2",""
"","","","","","html-keyboard-response","25","2.0.0","94625","chn0ly2twt","2026-02-16","a0d7","null","6993847a830e8e751c1e17ce","Pilot_1","1","1","8","0.40","8","0.40","8","","8","5","","","","","","","","SP2","Treasurer",""
"","","","","","html-keyboard-response","26","2.0.0","98475","chn0ly2twt","2026-02-16","a0d7","null","6993847a830e8e751c1e17ce","Pilot_1","1","1","8","0.40","8","0.40","8","","8","5","","","","","","","","Treasurer","SP1",""
"","","","","","html-keyboard-response","27","2.0.0","101441","chn0ly2twt","2026-02-16","a0d7","null","6993847a830e8e751c1e17ce","Pilot_1","1","1","8","0.40","8","0.40","8","","8","5","","","","","","","","SP1","Treasurer",""
"","","","","","html-keyboard-response","28","2.0.0","106209","chn0ly2twt","2026-02-16","a0d7","null","6993847a830e8e751c1e17ce","Pilot_1","1","1","8","0.40","8","0.40","8","","8","5","","","","","","","","Treasurer","SP2",""
"","","","","","html-keyboard-response","29","2.0.0","110740","chn0ly2twt","2026-02-16","a0d7","null","6993847a830e8e751c1e17ce","Pilot_1","1","1","8","0.40","8","0.40","8","","8","5","","","","","","","","SP2","Treasurer",""
"","","","","","html-keyboard-response","30","2.0.0","115423","chn0ly2twt","2026-02-16","a0d7","null","6993847a830e8e751c1e17ce","Pilot_1","1","1","8","0.40","8","0.40","8","","8","5","","","","","","","","Treasurer","SP1",""
"","","","","","html-keyboard-response","31","2.0.0","118489","chn0ly2twt","2026-02-16","a0d7","null","6993847a830e8e751c1e17ce","Pilot_1","1","1","8","0.40","8","0.40","8","","8","5","","","","","","","","SP1","Treasurer",""
"","","","","","html-keyboard-response","32","2.0.0","122889","chn0ly2twt","2026-02-16","a0d7","null","6993847a830e8e751c1e17ce","Pilot_1","1","1","8","0.40","8","0.40","8","","8","5","","","","","","","","Treasurer","SP1",""
"","","","","","html-keyboard-response","33","2.0.0","126155","chn0ly2twt","2026-02-16","a0d7","null","6993847a830e8e751c1e17ce","Pilot_1","1","1","8","0.40","8","0.40","8","","8","5","","","","","","","","SP1","Treasurer",""
"","","","","","html-keyboard-response","34","2.0.0","130188","chn0ly2twt","2026-02-16","a0d7","null","6993847a830e8e751c1e17ce","Pilot_1","1","1","8","0.40","8","0.40","8","","8","5","","","","","","","","Treasurer","SP2",""
"","","","","","html-keyboard-response","35","2.0.0","133738","chn0ly2twt","2026-02-16","a0d7","null","6993847a830e8e751c1e17ce","Pilot_1","1","1","8","0.40","8","0.40","8","","8","5","","","","","","","","SP2","Treasurer",""
"","","","","","html-keyboard-response","36","2.0.0","137937","chn0ly2twt","2026-02-16","a0d7","null","6993847a830e8e751c1e17ce","Pilot_1","1","1","8","0.40","8","0.40","8","","8","5","","","","","","","","Treasurer","SP1",""
"","","","","","html-keyboard-response","37","2.0.0","140870","chn0ly2twt","2026-02-16","a0d7","null","6993847a830e8e751c1e17ce","Pilot_1","1","1","8","0.40","8","0.40","8","","8","5","","","","","","","","SP1","Treasurer",""
"","","","","","html-keyboard-response","38","2.0.0","145319","chn0ly2twt","2026-02-16","a0d7","null","6993847a830e8e751c1e17ce","Pilot_1","1","1","8","0.40","8","0.40","8","","8","5","","","","","","","","Treasurer","SP2",""
"","","","","","html-keyboard-response","39","2.0.0","150269","chn0ly2twt","2026-02-16","a0d7","null","6993847a830e8e751c1e17ce","Pilot_1","1","1","8","0.40","8","0.40","8","","8","5","","","","","","","","SP2","Treasurer",""
"","","","","","html-button-response","40","2.0.0","157842","chn0ly2twt","2026-02-16","a0d7","null","6993847a830e8e751c1e17ce","Pilot_1","1","1","8","0.40","8","0.40","8","","8","5","end_game","7570","<h2>Game Over</h2>
              <p style=""width: 800px; text-align: start;"">The game has ended! You earned <b>8 points</b>, which is equivalent to <b>$0.40</b>.<br><br>
                Your fellow player, Standard Player 2, earned <b>8 points</b>, which is equivalent to <b>$0.40</b>.<br><br>
                Please click the button below to continue to the next part of the study.</p>","0","","","","","",""
"","","","","","survey-text","41","2.0.0","182422","chn0ly2twt","2026-02-16","a0d7","null","6993847a830e8e751c1e17ce","Pilot_1","1","1","8","0.40","8","0.40","8","","8","5","comprehension_check","24576","","{""SP1_ball_received_T"":""8"",""SP2_ball_received_T"":""8""}","","","","","",""
"","","","","","html-slider-response","42","2.0.0","217714","chn0ly2twt","2026-02-16","a0d7","null","6993847a830e8e751c1e17ce","Pilot_1","1","1","8","0.40","8","0.40","8","","8","5","","35288","
  <p style=""width: 1000px; padding: 10px"">
    You may choose to reduce SP2’s earnings by giving up some of your own earnings. This is a <u>one-time, one-sided decision</u>. This means only you make this decision; SP2 will not make a corresponding decision.<br><br>

    For every <b>$0.01</b> you give up, SP2’s earnings are reduced by <b>$0.05</b>.<br>
    For example, giving up <b>$0.03</b> reduces SP2’s earnings by <b>$0.15</b>. Choosing $0 means no change to either participant's earnings.<br>
    Earnings for either participant cannot go below <b>$0</b>.<br><br>

    You may move the slider below to see how different choices would affect both participants’ earnings. Moving the slider does not finalize your decision. Your decision is only locked in once you click 'Continue' and move on to the next task.<br><br>

    There is no correct or expected choice. Please use the slider to indicate how much of your own earnings you would like to give up in order to reduce SP2's earnings.
    </p>

  <div style=""
    display:flex;
    justify-content:center;
    gap:100px;
    margin:30px 0;
    align-items:flex-end;
  "">

    <div style=""text-align:center;"">
      <div id=""sp1-baseline"" style=""font-weight: bold; margin-bottom:6px;"">$0.00</div>
      <div id=""sp1-coins""></div>
      <div style=""margin-top:6px;"">You (SP1)</div>
    </div>

    <div style=""text-align:center;"">
      <div id=""sp2-baseline"" style=""font-weight: bold; margin-bottom:6px;"">$0.00</div>
      <div id=""sp2-coins""></div>
      <div style=""margin-top:6px;"">SP2</div>
    </div>

  </div>
  ","5","","","","","","0"
"","","","","","call-function","43","null","217716","chn0ly2twt","2026-02-16","a0d7","null","6993847a830e8e751c1e17ce","Pilot_1","1","1","8","0.40","8","0.40","8","","8","5","","","","","","","","","",""
"","","","","","survey-text","44","2.0.0","1386014","chn0ly2twt","2026-02-16","a0d7","null","6993847a830e8e751c1e17ce","Pilot_1","1","1","8","0.40","8","0.40","8","","8","5","","1168289","","{""dv1_OE_game_satisfaction"":""it went ok when it worked properly i had to refresh 5 times it was slow but fun i think they are bots as it was quite random plus i got more points in other attempts but it kept freezing after the game but im happy with the outcome,great game"",""dv1_oe_playtime_satisfaction"":""on this round 50?50 is ok but i got more on my other attempts before tech issues if you pressed more when throwing u would get more but i just went slow to hopefully get the game to work,im satisfied with getting the same amount of throws this time though"",""dv1_oe_earnings_satisfaction"":""yes any bonus is great after the fact of the tech issues and time i waited for it to work,i dont know what more to say a bonus is for working and ive been hard at it on this task and the bonus makes me happy fo my time yes"",""dv1_oe_treasurer_behavior"":""they just fairly thrown it at us it was very slow but i wouldnt have any expectations as i havent played this game before so all in all what can i fault with the game apart from the tech issues so all i can say is in the end it was a fair game"",""dv1_oe_sp2_behavior"":""no it was fine they done was they needed to do and throw the ball to the treasurer so i cant fault them one bit,did it meet your expectations? yes they done what i thought they would do theyre not going to throw the ball to be,i dont wish theyd done it any other way"",""dv1_oe_message_to_treasurer"":""nothing they threw the ball 50/50 so what else could i say apart from why didnt you throw it to me more than the other,im sorry i really dont know what you want me to say in 50 words here its very hard when only one answer exists here you know"",""dv1_oe_message_to_sp2"":""well done you got the same points as me for doing the task like you were told ,fantastic i hope you enjoy your bonus you played the game really well just like i did and got points by throwing the ball to the person you were told to do it too""}","","","","","",""
"","","","","","survey-likert","45","2.0.0","1428178","chn0ly2twt","2026-02-16","a0d7","null","6993847a830e8e751c1e17ce","Pilot_1","1","1","8","0.40","8","0.40","8","","8","5","","42159","","{""dv2_praising"":3,""dv2_insulting"":0,""dv2_avoiding"":0,""dv2_become_friends"":0,""dv2_unkind_things"":0,""dv2_helping"":3,""dv2_complementing"":4,""dv2_favor"":2,""dv2_invite_fun"":0,""dv2_ignore"":1}","[0,1,2,3,4,5,6,7,8,9]","","","","",""
"","","","","","survey-likert","46","2.0.0","1482301","chn0ly2twt","2026-02-16","a0d7","null","6993847a830e8e751c1e17ce","Pilot_1","1","1","8","0.40","8","0.40","8","","8","5","","54112","","{""dv3_state_envy"":0,""dv3_state_jealous"":0,""dv3_state_bitter"":0,""dv3_state_resentful"":0,""dv3_state_happy"":3,""dv3_state_compassionate"":3,""dv3_state_surprised"":0,""dv3_state_grateful"":0,""dv3_state_thankful"":0,""dv3_state_sad"":0,""dv3_state_upset"":0,""dv3_state_disappointed"":0,""dv3_state_annoyed"":0,""dv3_state_angry"":0,""dv3_state_shame"":0,""dv3_state_contempt"":0,""dv3_state_joy"":0,""dv3_state_irritated"":0}","[0,1,2,3,4,5,6,7,8,9,10,11,12,13,14,15,16,17]","","","","",""
"","","","","","survey-likert","47","2.0.0","1528299","chn0ly2twt","2026-02-16","a0d7","null","6993847a830e8e751c1e17ce","Pilot_1","1","1","8","0.40","8","0.40","8","","8","5","","45990","","{""dv3a_performed_well"":6,""dv3a_attention_check_1"":1,""dv3a_wish_received_more"":5,""dv3a_results_happy"":5,""dv3a_game_unfair"":1,""dv3a_game_different"":3,""dv3a_felt_bad_others"":0,""dv3a_felt_ignored"":0,""dv3a_felt_excluded"":0,""dv3a_understood_rules"":6,""dv3a_felt_malicious_envy"":0}","[9,5,3,1,0,2,10,4,6,8,7]","","","","",""
"","","","","","survey-likert","48","2.0.0","1555539","chn0ly2twt","2026-02-16","a0d7","null","6993847a830e8e751c1e17ce","Pilot_1","1","1","8","0.40","8","0.40","8","","8","5","","27235","","{""dv3b_sp2_unfiar"":0,""dv3b_sp2_betrayal"":0,""dv3b_sp2_closeness"":0,""dv3b_sp2_deservingness"":5,""dv3b_sp2_competition"":3,""dv3b_sp2_rival"":2,""dv3b_sp2_take_winnings"":3,""dv3b_sp2_shared_goals"":3}","[2,1,0,4,5,7,3,6]","","","","",""
"","","","","","survey-likert","49","2.0.0","1570824","chn0ly2twt","2026-02-16","a0d7","null","6993847a830e8e751c1e17ce","Pilot_1","1","1","8","0.40","8","0.40","8","","8","5","","15281","","{""dv3b_treasurer_shared_goals"":3,""dv3c_treasurer_closeness"":3,""dv3b_treasurer_rival"":3,""dv3c_treasurer_betrayal"":3,""dv3c_treasurer_unfair"":3,""dv3b_treasurer_competition"":3}","[4,0,5,1,2,3]","","","","",""
"","","","","","survey-likert","50","2.0.0","1591782","chn0ly2twt","2026-02-16","a0d7","null","6993847a830e8e751c1e17ce","Pilot_1","1","1","8","0.40","8","0.40","8","","8","5","","20950","","{""dv4_rain_on_parade"":3,""dv4_trade_places_rev"":3,""dv4_angry_others_succeed"":3,""dv4_happy_friends_succeed_rev"":3,""dv4_content_with_self_rev"":3,""dv4_happy_others_succeed_rev"":3,""dv4_pain_friends_succeed"":2,""dv4_prefer_stranger_win"":2}","[0,1,2,3,4,5,6,7]","","","","",""
"","","","","","survey-multi-choice","51","2.1.0","1622271","chn0ly2twt","2026-02-16","a0d7","null","6993847a830e8e751c1e17ce","Pilot_1","1","1","8","0.40","8","0.40","8","","8","5","","30483","","{""demo_attention_check_2"":""1000+"",""demo_sex"":""Male"",""demo_gender"":""Man"",""demo_education"":""Some college, no degree"",""demo_social_class"":""2 = lower middle"",""demo_marital_status"":""Married/In a domestic partnership""}","[0,1,2,3,4,5]","","","","",""
"","","","","","survey-text","52","2.0.0","1626451","chn0ly2twt","2026-02-16","a0d7","null","6993847a830e8e751c1e17ce","Pilot_1","1","1","8","0.40","8","0.40","8","","8","5","","4176","","{""demo_age"":""44""}","","","","","",""
"","","","","","survey-multi-select","53","null","1630344","chn0ly2twt","2026-02-16","a0d7","null","6993847a830e8e751c1e17ce","Pilot_1","1","1","8","0.40","8","0.40","8","","8","5","","3881","","{""demo_race"":[""White""]}","[0]","","","","",""
"","","","","","survey-likert","54","2.0.0","1633936","chn0ly2twt","2026-02-16","a0d7","null","6993847a830e8e751c1e17ce","Pilot_1","1","1","8","0.40","8","0.40","8","","8","5","","3588","","{""attention_check_3"":4}","[0]","","","","",""
"","","","","","survey-text","55","2.0.0","1672174","chn0ly2twt","2026-02-16","a0d7","null","6993847a830e8e751c1e17ce","Pilot_1","1","1","8","0.40","8","0.40","8","","8","5","","38229","","{""funnel1"":""no idea"",""funnel2"":""no idea"",""funnel3"":""50 words is odd""}","","","","","",""
