"success","timeout","failed_images","failed_audio","failed_video","trial_type","trial_index","plugin_version","time_elapsed","subject_id","experiment_date","prolific_id_last4","study_id","session_id","version","condition","schedule","sp1Points","sp1Dollars","sp2Points","sp2Dollars","SP1_ball_received_T","SP1_ball_received_SP2","SP2_ball_received_T","burn_amount","task","rt","stimulus","response","question_order","correct","value","from","to","slider_start"
"true","false","[]","[]","[]","preload","0","2.0.0","140","dqarhxw3d0","2026-02-16","b341","null","699384776c702750d87a9bc3","Pilot_1","4","4","9","0.45","8","0.40","6","3","11","0","","","","","","","","","",""
"","","","","","html-button-response","1","2.0.0","10113","dqarhxw3d0","2026-02-16","b341","null","699384776c702750d87a9bc3","Pilot_1","4","4","9","0.45","8","0.40","6","3","11","0","consent","9970","
    <p style = ""text-align: start; width: 900px""> You are being invited to participate in a research study titled: The Influence of Social Interactions on Decision Making.<br><br>
        This study is being done by Michael McCullough, PhD (Principal Investigator) from UC San Diego. You were selected to participate in this study because you are a representative member of the society the investigators wish to study. 
        The purpose of this research study is to explore how nonverbal social interactions affect the way people talk to themselves. Your participation in this research should last no longer than 30 minutes. If you agree to take part in this study, you will be asked to complete several surveys that ask about your feelings, beliefs, judgments, and personal background.
        Your participation in this study is completely voluntary and you can withdraw at any time. Choosing not to participate or withdrawing will result in no penalty or loss of benefits to which you are entitled. Research sometimes requires that information regarding its purpose not be shared with the research participants because its knowledge could impact the results of the research. 
        Note that none of the aspects of the research being withheld are reasonably expected to affect your willingness to take part. While the tasks you will be asked to perform for this research have been explained, the full intent of the research will not be provided until the completion of the study. At that time, you will have the opportunity to ask questions, including about the purpose of the study and the procedures used, and withdraw your data if you so choose.
        If you have questions about this project or if you have a research-related problem, you may contact the researcher(s), Michael McCullough, Ph.D., Department of Psychology, University of California, San Diego, 9500 Gilman Drive, La Jolla, CA 92093-0109 and by email at memccullough@ucsd.edu. If you have any questions concerning your rights as a research subject, you may contact the UC San Diego Office of IRB Administration at irb@ucsd.edu or 858-246-4777.
        By participating in this research, you are indicating that you are at least 18 years old, have read this consent form, and agree to participate in this research study. Please keep this consent form for your records.</p>
        <p>Do you consent?</p>","0","","","","","",""
"","","","","","html-button-response","2","2.0.0","19602","dqarhxw3d0","2026-02-16","b341","null","699384776c702750d87a9bc3","Pilot_1","4","4","9","0.45","8","0.40","6","3","11","0","study_description","9482","<h2>Study Description</h2>
                 <p style=""width: 900px; text-align: start"">Thank you for agreeing to participate in this study! This study seeks to understand how social interactions influence our decision-making processes.<br><br>
                 In this study, you will play a virtual ball-tossing game with two other participants. The game is designed to simulate social interactions and observe how they affect how you make decisions towards other people.<br><br>
                 The instructions for the game will be provided in the next section. To ensure that everyone understands the rules, there will be a short quiz. If you get any answers wrong, don't worry—you will have the opportunity to review the instructions and retake the quiz until you get all the answers correct.<br><br>
                 Please pay close attention to the game and try to engage with the other participants as naturally as possible.</p>","0","","","","","",""
"","","","","","html-button-response","3","2.0.0","60433","dqarhxw3d0","2026-02-16","b341","null","699384776c702750d87a9bc3","Pilot_1","4","4","9","0.45","8","0.40","6","3","11","0","game_instructions","40826","<h2>Game Instructions</h2>
                <p style=""width: 1000px; text-align: start"">In Cyberball there are three players: Standard Player 1 (SP1), Standard Player 2 (SP2), and a Treasurer. <b>You are SP1</b>.
                <br><br>
                Your objective in Cyberball is to earn points by tossing a ball. At the end of the game, the points will be converted into a monetary bonus. Each point you earn is worth $0.05. To help you keep track of points, there will be a scoreboard displayed in the top-right corner of the screen during the game.<br>
                The way the game works is that SP1 and SP2 individually earn points by tossing the ball to the Treasurer. Each time that SP1 or SP2 tossed the ball to the Treasurer, <u>the person who tossed the ball earns one point</u>. In other words, SP1 and SP2 earn points when they get the chance to toss the ball to the Treasurer. Of course, you could toss the ball to whomever you want, but you will only earn points when you pass the ball to the Treasurer.
                So, for example, if SP1 tosses the ball to the Treasurer, SP1 will earn one point and SP2 will not earn any points. Likewise, if SP2 tosses the ball to the Treasurer, SP2 will earn one point and SP1 will not earn anything. 
                <br><br>
                Keep in mind that SP1 and SP2 cannot earn points by tossing the ball to each other.
                SP1 and SP2 can only earn points by tossing the ball to the Treasurer. So, for example, if SP1 tosses the ball to SP2, neither SP1 or SP2 will earn any points. But whoever then throws the ball to the Treasurer will earn a point.</p>","0","","","","","",""
"","","","","","survey-multi-choice","4","2.1.0","75006","dqarhxw3d0","2026-02-16","b341","null","699384776c702750d87a9bc3","Pilot_1","4","4","9","0.45","8","0.40","6","3","11","0","comprehension_quiz","14569","","{""role"":""Standard Player 1 (SP1)"",""points"":""By tossing the ball to the Treasurer"",""passing"":""Yes"",""passing_points"":""0 points""}","[0,1,2,3]","true","","","",""
"","","","","","html-button-response","5","2.0.0","79166","dqarhxw3d0","2026-02-16","b341","null","699384776c702750d87a9bc3","Pilot_1","4","4","9","0.45","8","0.40","6","3","11","0","","4158","<p style=""color:green; font-weight:bold"">Great! You have answered all questions correctly. Let's move on to the game.</p><p>If you need a refresh on the instructions, please click the button <i>Open Cyberball Rules</i> on the top left corner of your screen.</p>","0","","","","","",""
"","","","","","call-function","6","null","79169","dqarhxw3d0","2026-02-16","b341","null","699384776c702750d87a9bc3","Pilot_1","4","4","9","0.45","8","0.40","6","3","11","0","","","","","","","","","",""
"","","","","","call-function","7","null","79172","dqarhxw3d0","2026-02-16","b341","null","699384776c702750d87a9bc3","Pilot_1","4","4","9","0.45","8","0.40","6","3","11","0","","","","","","","","","",""
"","","","","","html-keyboard-response","8","2.0.0","83046","dqarhxw3d0","2026-02-16","b341","null","699384776c702750d87a9bc3","Pilot_1","4","4","9","0.45","8","0.40","6","3","11","0","","","","","","","","Treasurer","SP2",""
"","","","","","html-keyboard-response","9","2.0.0","86895","dqarhxw3d0","2026-02-16","b341","null","699384776c702750d87a9bc3","Pilot_1","4","4","9","0.45","8","0.40","6","3","11","0","","","","","","","","SP2","Treasurer",""
"","","","","","html-keyboard-response","10","2.0.0","91461","dqarhxw3d0","2026-02-16","b341","null","699384776c702750d87a9bc3","Pilot_1","4","4","9","0.45","8","0.40","6","3","11","0","","","","","","","","Treasurer","SP1",""
"","","","","","html-keyboard-response","11","2.0.0","94096","dqarhxw3d0","2026-02-16","b341","null","699384776c702750d87a9bc3","Pilot_1","4","4","9","0.45","8","0.40","6","3","11","0","","","","","","","","SP1","Treasurer",""
"","","","","","html-keyboard-response","12","2.0.0","99296","dqarhxw3d0","2026-02-16","b341","null","699384776c702750d87a9bc3","Pilot_1","4","4","9","0.45","8","0.40","6","3","11","0","","","","","","","","Treasurer","SP2",""
"","","","","","html-keyboard-response","13","2.0.0","102779","dqarhxw3d0","2026-02-16","b341","null","699384776c702750d87a9bc3","Pilot_1","4","4","9","0.45","8","0.40","6","3","11","0","","","","","","","","SP2","Treasurer",""
"","","","","","html-keyboard-response","14","2.0.0","106013","dqarhxw3d0","2026-02-16","b341","null","699384776c702750d87a9bc3","Pilot_1","4","4","9","0.45","8","0.40","6","3","11","0","","","","","","","","Treasurer","SP2",""
"","","","","","html-keyboard-response","15","2.0.0","109497","dqarhxw3d0","2026-02-16","b341","null","699384776c702750d87a9bc3","Pilot_1","4","4","9","0.45","8","0.40","6","3","11","0","","","","","","","","SP2","Treasurer",""
"","","","","","html-keyboard-response","16","2.0.0","113263","dqarhxw3d0","2026-02-16","b341","null","699384776c702750d87a9bc3","Pilot_1","4","4","9","0.45","8","0.40","6","3","11","0","","","","","","","","Treasurer","SP1",""
"","","","","","html-keyboard-response","17","2.0.0","116363","dqarhxw3d0","2026-02-16","b341","null","699384776c702750d87a9bc3","Pilot_1","4","4","9","0.45","8","0.40","6","3","11","0","","","","","","","","SP1","Treasurer",""
"","","","","","html-keyboard-response","18","2.0.0","119714","dqarhxw3d0","2026-02-16","b341","null","699384776c702750d87a9bc3","Pilot_1","4","4","9","0.45","8","0.40","6","3","11","0","","","","","","","","Treasurer","SP2",""
"","","","","","html-keyboard-response","19","2.0.0","124214","dqarhxw3d0","2026-02-16","b341","null","699384776c702750d87a9bc3","Pilot_1","4","4","9","0.45","8","0.40","6","3","11","0","","","","","","","","SP2","Treasurer",""
"","","","","","html-keyboard-response","20","2.0.0","129048","dqarhxw3d0","2026-02-16","b341","null","699384776c702750d87a9bc3","Pilot_1","4","4","9","0.45","8","0.40","6","3","11","0","","","","","","","","Treasurer","SP2",""
"","","","","","html-keyboard-response","21","2.0.0","133381","dqarhxw3d0","2026-02-16","b341","null","699384776c702750d87a9bc3","Pilot_1","4","4","9","0.45","8","0.40","6","3","11","0","","","","","","","","SP2","Treasurer",""
"","","","","","html-keyboard-response","22","2.0.0","137063","dqarhxw3d0","2026-02-16","b341","null","699384776c702750d87a9bc3","Pilot_1","4","4","9","0.45","8","0.40","6","3","11","0","","","","","","","","Treasurer","SP1",""
"","","","","","html-keyboard-response","23","2.0.0","139715","dqarhxw3d0","2026-02-16","b341","null","699384776c702750d87a9bc3","Pilot_1","4","4","9","0.45","8","0.40","6","3","11","0","","","","","","","","SP1","Treasurer",""
"","","","","","html-keyboard-response","24","2.0.0","143515","dqarhxw3d0","2026-02-16","b341","null","699384776c702750d87a9bc3","Pilot_1","4","4","9","0.45","8","0.40","6","3","11","0","","","","","","","","Treasurer","SP2",""
"","","","","","html-keyboard-response","25","2.0.0","148382","dqarhxw3d0","2026-02-16","b341","null","699384776c702750d87a9bc3","Pilot_1","4","4","9","0.45","8","0.40","6","3","11","0","","","","","","","","SP2","SP1",""
"","","","","","html-keyboard-response","26","2.0.0","158483","dqarhxw3d0","2026-02-16","b341","null","699384776c702750d87a9bc3","Pilot_1","4","4","9","0.45","8","0.40","6","3","11","0","","","","","","","","SP1","Treasurer",""
"","","","","","html-keyboard-response","27","2.0.0","163496","dqarhxw3d0","2026-02-16","b341","null","699384776c702750d87a9bc3","Pilot_1","4","4","9","0.45","8","0.40","6","3","11","0","","","","","","","","Treasurer","SP2",""
"","","","","","html-keyboard-response","28","2.0.0","167112","dqarhxw3d0","2026-02-16","b341","null","699384776c702750d87a9bc3","Pilot_1","4","4","9","0.45","8","0.40","6","3","11","0","","","","","","","","SP2","Treasurer",""
"","","","","","html-keyboard-response","29","2.0.0","171462","dqarhxw3d0","2026-02-16","b341","null","699384776c702750d87a9bc3","Pilot_1","4","4","9","0.45","8","0.40","6","3","11","0","","","","","","","","Treasurer","SP1",""
"","","","","","html-keyboard-response","30","2.0.0","174313","dqarhxw3d0","2026-02-16","b341","null","699384776c702750d87a9bc3","Pilot_1","4","4","9","0.45","8","0.40","6","3","11","0","","","","","","","","SP1","Treasurer",""
"","","","","","html-keyboard-response","31","2.0.0","174863","dqarhxw3d0","2026-02-16","b341","null","699384776c702750d87a9bc3","Pilot_1","4","4","9","0.45","8","0.40","6","3","11","0","","","","","","","","SP1","Treasurer",""
"","","","","","html-keyboard-response","32","2.0.0","177846","dqarhxw3d0","2026-02-16","b341","null","699384776c702750d87a9bc3","Pilot_1","4","4","9","0.45","8","0.40","6","3","11","0","","","","","","","","Treasurer","SP2",""
"","","","","","html-keyboard-response","33","2.0.0","179930","dqarhxw3d0","2026-02-16","b341","null","699384776c702750d87a9bc3","Pilot_1","4","4","9","0.45","8","0.40","6","3","11","0","","","","","","","","SP2","SP1",""
"","","","","","html-keyboard-response","34","2.0.0","185047","dqarhxw3d0","2026-02-16","b341","null","699384776c702750d87a9bc3","Pilot_1","4","4","9","0.45","8","0.40","6","3","11","0","","","","","","","","Treasurer","SP2",""
"","","","","","html-keyboard-response","35","2.0.0","188414","dqarhxw3d0","2026-02-16","b341","null","699384776c702750d87a9bc3","Pilot_1","4","4","9","0.45","8","0.40","6","3","11","0","","","","","","","","SP2","Treasurer",""
"","","","","","html-keyboard-response","36","2.0.0","193397","dqarhxw3d0","2026-02-16","b341","null","699384776c702750d87a9bc3","Pilot_1","4","4","9","0.45","8","0.40","6","3","11","0","","","","","","","","Treasurer","SP2",""
"","","","","","html-keyboard-response","37","2.0.0","196914","dqarhxw3d0","2026-02-16","b341","null","699384776c702750d87a9bc3","Pilot_1","4","4","9","0.45","8","0.40","6","3","11","0","","","","","","","","SP2","Treasurer",""
"","","","","","html-keyboard-response","38","2.0.0","200981","dqarhxw3d0","2026-02-16","b341","null","699384776c702750d87a9bc3","Pilot_1","4","4","9","0.45","8","0.40","6","3","11","0","","","","","","","","Treasurer","SP2",""
"","","","","","html-keyboard-response","39","2.0.0","205148","dqarhxw3d0","2026-02-16","b341","null","699384776c702750d87a9bc3","Pilot_1","4","4","9","0.45","8","0.40","6","3","11","0","","","","","","","","SP2","SP1",""
"","","","","","html-keyboard-response","40","2.0.0","208164","dqarhxw3d0","2026-02-16","b341","null","699384776c702750d87a9bc3","Pilot_1","4","4","9","0.45","8","0.40","6","3","11","0","","","","","","","","SP1","Treasurer",""
"","","","","","html-keyboard-response","41","2.0.0","208798","dqarhxw3d0","2026-02-16","b341","null","699384776c702750d87a9bc3","Pilot_1","4","4","9","0.45","8","0.40","6","3","11","0","","","","","","","","SP1","Treasurer",""
"","","","","","html-keyboard-response","42","2.0.0","211781","dqarhxw3d0","2026-02-16","b341","null","699384776c702750d87a9bc3","Pilot_1","4","4","9","0.45","8","0.40","6","3","11","0","","","","","","","","Treasurer","SP2",""
"","","","","","html-keyboard-response","43","2.0.0","213127","dqarhxw3d0","2026-02-16","b341","null","699384776c702750d87a9bc3","Pilot_1","4","4","9","0.45","8","0.40","6","3","11","0","","","","","","","","SP2","SP1",""
"","","","","","html-button-response","44","2.0.0","215082","dqarhxw3d0","2026-02-16","b341","null","699384776c702750d87a9bc3","Pilot_1","4","4","9","0.45","8","0.40","6","3","11","0","end_game","","","","","","","SP1","Treasurer",""
"","","","","","survey-text","45","2.0.0","243228","dqarhxw3d0","2026-02-16","b341","null","699384776c702750d87a9bc3","Pilot_1","4","4","9","0.45","8","0.40","6","3","11","0","comprehension_check","28134","","{""SP1_ball_received_T"":""6"",""SP1_ball_received_SP2"":""3"",""SP2_ball_received_T"":""11""}","","","","","",""
"","","","","","html-slider-response","46","2.0.0","273700","dqarhxw3d0","2026-02-16","b341","null","699384776c702750d87a9bc3","Pilot_1","4","4","9","0.45","8","0.40","6","3","11","0","","30467","
  <p style=""width: 1000px; padding: 10px"">
    You may choose to reduce SP2’s earnings by giving up some of your own earnings. This is a <u>one-time, one-sided decision</u>. This means only you make this decision; SP2 will not make a corresponding decision.<br><br>

    For every <b>$0.01</b> you give up, SP2’s earnings are reduced by <b>$0.05</b>.<br>
    For example, giving up <b>$0.03</b> reduces SP2’s earnings by <b>$0.15</b>. Choosing $0 means no change to either participant's earnings.<br>
    Earnings for either participant cannot go below <b>$0</b>.<br><br>

    You may move the slider below to see how different choices would affect both participants’ earnings. Moving the slider does not finalize your decision. Your decision is only locked in once you click 'Continue' and move on to the next task.<br><br>

    There is no correct or expected choice. Please use the slider to indicate how much of your own earnings you would like to give up in order to reduce SP2's earnings.
    </p>

  <div style=""
    display:flex;
    justify-content:center;
    gap:100px;
    margin:30px 0;
    align-items:flex-end;
  "">

    <div style=""text-align:center;"">
      <div id=""sp1-baseline"" style=""font-weight: bold; margin-bottom:6px;"">$0.00</div>
      <div id=""sp1-coins""></div>
      <div style=""margin-top:6px;"">You (SP1)</div>
    </div>

    <div style=""text-align:center;"">
      <div id=""sp2-baseline"" style=""font-weight: bold; margin-bottom:6px;"">$0.00</div>
      <div id=""sp2-coins""></div>
      <div style=""margin-top:6px;"">SP2</div>
    </div>

  </div>
  ","0","","","","","","0"
"","","","","","call-function","47","null","273702","dqarhxw3d0","2026-02-16","b341","null","699384776c702750d87a9bc3","Pilot_1","4","4","9","0.45","8","0.40","6","3","11","0","","","","","","","","","",""
"","","","","","survey-text","48","2.0.0","807913","dqarhxw3d0","2026-02-16","b341","null","699384776c702750d87a9bc3","Pilot_1","4","4","9","0.45","8","0.40","6","3","11","0","","534199","","{""dv1_OE_game_satisfaction"":""Yes, although the treasurer seemed to throw to the other player more, the other player threw to me a few times so it worked out fairly even in terms of points overall. I felt I had a decent amount of opportunities throughout the game, and they came at fairly regular intervals. "",""dv1_oe_playtime_satisfaction"":""Yes, overall I got to play slightly less than the other player but they threw to me a few times which increased my turns which evened it out. Of course, it would have been even better if I had more turns, as the treasurer didn’t split up the turns evenly. "",""dv1_oe_earnings_satisfaction"":""Fairly satisfied, the game was slow so if it had been quicker I would have made more which would have been better, but overall it’s better than nothing and I can’t complain. It helps that it was fairly similar between both players, I would not have been satisfied if the other player had a much larger bonus. "",""dv1_oe_treasurer_behavior"":""I expected the treasurer to distribute the throws more evenly but they didn’t seem to do that, which I didn’t like as it wasn’t within my control. It wasn’t so uneven to be a significant problem but it didn’t feel fully fair, so I wouldn’t say it met my expectations "",""dv1_oe_sp2_behavior"":""Their behaviour was good, in the sense that it worked in my favour as they sent the ball to me several times. I don’t have much of an opinion beyond that as I don’t know why they would do it because it didn’t benefit them at all to send it to me. "",""dv1_oe_message_to_treasurer"":""I would complain that they didn’t seem to split their throws evenly and if it weren’t for the other player throwing to me then it would have been very uneven. I would suggest that in future it is more evenly distributed between players in order to make it more fair. "",""dv1_oe_message_to_sp2"":""I would ask why they threw the ball to me at all, since it didn’t benefit them in any way. I would thank them for throwing to me a few times though as it did benefit me even if it didn’t benefit them, they played very fairly which is commendable behaviour. ""}","","","","","",""
"","","","","","survey-likert","49","2.0.0","832013","dqarhxw3d0","2026-02-16","b341","null","699384776c702750d87a9bc3","Pilot_1","4","4","9","0.45","8","0.40","6","3","11","0","","24095","","{""dv2_praising"":4,""dv2_insulting"":1,""dv2_avoiding"":1,""dv2_become_friends"":3,""dv2_unkind_things"":1,""dv2_helping"":5,""dv2_complementing"":3,""dv2_favor"":4,""dv2_invite_fun"":3,""dv2_ignore"":1}","[0,1,2,3,4,5,6,7,8,9]","","","","",""
"","","","","","survey-likert","50","2.0.0","862872","dqarhxw3d0","2026-02-16","b341","null","699384776c702750d87a9bc3","Pilot_1","4","4","9","0.45","8","0.40","6","3","11","0","","30849","","{""dv3_state_envy"":0,""dv3_state_jealous"":0,""dv3_state_bitter"":0,""dv3_state_resentful"":0,""dv3_state_happy"":4,""dv3_state_compassionate"":3,""dv3_state_surprised"":4,""dv3_state_grateful"":4,""dv3_state_thankful"":4,""dv3_state_sad"":0,""dv3_state_upset"":0,""dv3_state_disappointed"":0,""dv3_state_annoyed"":0,""dv3_state_angry"":0,""dv3_state_shame"":0,""dv3_state_contempt"":0,""dv3_state_joy"":2,""dv3_state_irritated"":0}","[0,1,2,3,4,5,6,7,8,9,10,11,12,13,14,15,16,17]","","","","",""
"","","","","","survey-likert","51","2.0.0","896875","dqarhxw3d0","2026-02-16","b341","null","699384776c702750d87a9bc3","Pilot_1","4","4","9","0.45","8","0.40","6","3","11","0","","33999","","{""dv3a_performed_well"":5,""dv3a_game_unfair"":4,""dv3a_results_happy"":5,""dv3a_felt_excluded"":3,""dv3a_game_different"":3,""dv3a_wish_received_more"":5,""dv3a_felt_bad_others"":2,""dv3a_attention_check_1"":1,""dv3a_understood_rules"":6,""dv3a_felt_ignored"":1,""dv3a_felt_malicious_envy"":0}","[9,0,1,6,2,3,10,5,8,4,7]","","","","",""
"","","","","","survey-likert","52","2.0.0","913429","dqarhxw3d0","2026-02-16","b341","null","699384776c702750d87a9bc3","Pilot_1","4","4","9","0.45","8","0.40","6","3","11","0","","16548","","{""dv3b_sp2_deservingness"":3,""dv3b_sp2_competition"":1,""dv3b_sp2_betrayal"":0,""dv3b_sp2_shared_goals"":5,""dv3b_sp2_take_winnings"":2,""dv3b_sp2_closeness"":3,""dv3b_sp2_unfiar"":0,""dv3b_sp2_rival"":2}","[4,5,1,6,3,0,2,7]","","","","",""
"","","","","","survey-likert","53","2.0.0","935126","dqarhxw3d0","2026-02-16","b341","null","699384776c702750d87a9bc3","Pilot_1","4","4","9","0.45","8","0.40","6","3","11","0","","21692","","{""dv3c_treasurer_unfair"":4,""dv3b_treasurer_rival"":0,""dv3c_treasurer_betrayal"":4,""dv3c_treasurer_closeness"":2,""dv3b_treasurer_competition"":0,""dv3b_treasurer_shared_goals"":0}","[2,5,1,0,3,4]","","","","",""
"","","","","","survey-likert","54","2.0.0","957946","dqarhxw3d0","2026-02-16","b341","null","699384776c702750d87a9bc3","Pilot_1","4","4","9","0.45","8","0.40","6","3","11","0","","22816","","{""dv4_rain_on_parade"":0,""dv4_trade_places_rev"":5,""dv4_angry_others_succeed"":0,""dv4_happy_friends_succeed_rev"":6,""dv4_content_with_self_rev"":5,""dv4_happy_others_succeed_rev"":5,""dv4_pain_friends_succeed"":0,""dv4_prefer_stranger_win"":0}","[0,1,2,3,4,5,6,7]","","","","",""
"","","","","","survey-multi-choice","55","2.1.0","987859","dqarhxw3d0","2026-02-16","b341","null","699384776c702750d87a9bc3","Pilot_1","4","4","9","0.45","8","0.40","6","3","11","0","","29907","","{""demo_attention_check_2"":""1000+"",""demo_sex"":""Female"",""demo_gender"":""Woman"",""demo_education"":""Master's degree"",""demo_social_class"":""3 = middle"",""demo_marital_status"":""Never married""}","[0,1,2,3,4,5]","","","","",""
"","","","","","survey-text","56","2.0.0","992481","dqarhxw3d0","2026-02-16","b341","null","699384776c702750d87a9bc3","Pilot_1","4","4","9","0.45","8","0.40","6","3","11","0","","4611","","{""demo_age"":""28""}","","","","","",""
"","","","","","survey-multi-select","57","null","997982","dqarhxw3d0","2026-02-16","b341","null","699384776c702750d87a9bc3","Pilot_1","4","4","9","0.45","8","0.40","6","3","11","0","","5494","","{""demo_race"":[""White""]}","[0]","","","","",""
"","","","","","survey-likert","58","2.0.0","1004045","dqarhxw3d0","2026-02-16","b341","null","699384776c702750d87a9bc3","Pilot_1","4","4","9","0.45","8","0.40","6","3","11","0","","6061","","{""attention_check_3"":4}","[0]","","","","",""
"","","","","","survey-text","59","2.0.0","1062449","dqarhxw3d0","2026-02-16","b341","null","699384776c702750d87a9bc3","Pilot_1","4","4","9","0.45","8","0.40","6","3","11","0","","58390","","{""funnel1"":""To see how the feelings towards the other player change based on their behaviour and how the treasurer treats them versus you. "",""funnel2"":""If favouritism negatively impacts opinion of the other person "",""funnel3"":""""}","","","","","",""
