"success","timeout","failed_images","failed_audio","failed_video","trial_type","trial_index","plugin_version","time_elapsed","subject_id","experiment_date","prolific_id_last4","study_id","session_id","version","condition","schedule","sp1Points","sp1Dollars","sp2Points","sp2Dollars","SP1_ball_received_T","SP1_ball_received_SP2","SP2_ball_received_T","burn_amount","task","rt","stimulus","response","question_order","correct","value","from","to","slider_start"
"true","false","[]","[]","[]","preload","0","2.0.0","229","hgm1qvxbmg","2026-02-16","a134","null","6993847318dc337db478001f","Pilot_1","4","4","8","0.40","8","0.40","4","4","8","0","","","","","","","","","",""
"","","","","","html-button-response","1","2.0.0","1726432","hgm1qvxbmg","2026-02-16","a134","null","6993847318dc337db478001f","Pilot_1","4","4","8","0.40","8","0.40","4","4","8","0","consent","1726201","
    <p style = ""text-align: start; width: 900px""> You are being invited to participate in a research study titled: The Influence of Social Interactions on Decision Making.<br><br>
        This study is being done by Michael McCullough, PhD (Principal Investigator) from UC San Diego. You were selected to participate in this study because you are a representative member of the society the investigators wish to study. 
        The purpose of this research study is to explore how nonverbal social interactions affect the way people talk to themselves. Your participation in this research should last no longer than 30 minutes. If you agree to take part in this study, you will be asked to complete several surveys that ask about your feelings, beliefs, judgments, and personal background.
        Your participation in this study is completely voluntary and you can withdraw at any time. Choosing not to participate or withdrawing will result in no penalty or loss of benefits to which you are entitled. Research sometimes requires that information regarding its purpose not be shared with the research participants because its knowledge could impact the results of the research. 
        Note that none of the aspects of the research being withheld are reasonably expected to affect your willingness to take part. While the tasks you will be asked to perform for this research have been explained, the full intent of the research will not be provided until the completion of the study. At that time, you will have the opportunity to ask questions, including about the purpose of the study and the procedures used, and withdraw your data if you so choose.
        If you have questions about this project or if you have a research-related problem, you may contact the researcher(s), Michael McCullough, Ph.D., Department of Psychology, University of California, San Diego, 9500 Gilman Drive, La Jolla, CA 92093-0109 and by email at memccullough@ucsd.edu. If you have any questions concerning your rights as a research subject, you may contact the UC San Diego Office of IRB Administration at irb@ucsd.edu or 858-246-4777.
        By participating in this research, you are indicating that you are at least 18 years old, have read this consent form, and agree to participate in this research study. Please keep this consent form for your records.</p>
        <p>Do you consent?</p>","0","","","","","",""
"","","","","","html-button-response","2","2.0.0","1771564","hgm1qvxbmg","2026-02-16","a134","null","6993847318dc337db478001f","Pilot_1","4","4","8","0.40","8","0.40","4","4","8","0","study_description","45130","<h2>Study Description</h2>
                 <p style=""width: 900px; text-align: start"">Thank you for agreeing to participate in this study! This study seeks to understand how social interactions influence our decision-making processes.<br><br>
                 In this study, you will play a virtual ball-tossing game with two other participants. The game is designed to simulate social interactions and observe how they affect how you make decisions towards other people.<br><br>
                 The instructions for the game will be provided in the next section. To ensure that everyone understands the rules, there will be a short quiz. If you get any answers wrong, don't worry—you will have the opportunity to review the instructions and retake the quiz until you get all the answers correct.<br><br>
                 Please pay close attention to the game and try to engage with the other participants as naturally as possible.</p>","0","","","","","",""
"","","","","","html-button-response","3","2.0.0","1840047","hgm1qvxbmg","2026-02-16","a134","null","6993847318dc337db478001f","Pilot_1","4","4","8","0.40","8","0.40","4","4","8","0","game_instructions","68481","<h2>Game Instructions</h2>
                <p style=""width: 1000px; text-align: start"">In Cyberball there are three players: Standard Player 1 (SP1), Standard Player 2 (SP2), and a Treasurer. <b>You are SP1</b>.
                <br><br>
                Your objective in Cyberball is to earn points by tossing a ball. At the end of the game, the points will be converted into a monetary bonus. Each point you earn is worth $0.05. To help you keep track of points, there will be a scoreboard displayed in the top-right corner of the screen during the game.<br>
                The way the game works is that SP1 and SP2 individually earn points by tossing the ball to the Treasurer. Each time that SP1 or SP2 tossed the ball to the Treasurer, <u>the person who tossed the ball earns one point</u>. In other words, SP1 and SP2 earn points when they get the chance to toss the ball to the Treasurer. Of course, you could toss the ball to whomever you want, but you will only earn points when you pass the ball to the Treasurer.
                So, for example, if SP1 tosses the ball to the Treasurer, SP1 will earn one point and SP2 will not earn any points. Likewise, if SP2 tosses the ball to the Treasurer, SP2 will earn one point and SP1 will not earn anything. 
                <br><br>
                Keep in mind that SP1 and SP2 cannot earn points by tossing the ball to each other.
                SP1 and SP2 can only earn points by tossing the ball to the Treasurer. So, for example, if SP1 tosses the ball to SP2, neither SP1 or SP2 will earn any points. But whoever then throws the ball to the Treasurer will earn a point.</p>","0","","","","","",""
"","","","","","survey-multi-choice","4","2.1.0","1852265","hgm1qvxbmg","2026-02-16","a134","null","6993847318dc337db478001f","Pilot_1","4","4","8","0.40","8","0.40","4","4","8","0","comprehension_quiz","12214","","{""role"":""Standard Player 1 (SP1)"",""points"":""By tossing the ball to the Treasurer"",""passing"":""Yes"",""passing_points"":""0 points""}","[0,1,2,3]","true","","","",""
"","","","","","html-button-response","5","2.0.0","1855718","hgm1qvxbmg","2026-02-16","a134","null","6993847318dc337db478001f","Pilot_1","4","4","8","0.40","8","0.40","4","4","8","0","","3450","<p style=""color:green; font-weight:bold"">Great! You have answered all questions correctly. Let's move on to the game.</p><p>If you need a refresh on the instructions, please click the button <i>Open Cyberball Rules</i> on the top left corner of your screen.</p>","0","","","","","",""
"","","","","","call-function","6","null","1855720","hgm1qvxbmg","2026-02-16","a134","null","6993847318dc337db478001f","Pilot_1","4","4","8","0.40","8","0.40","4","4","8","0","","","","","","","","","",""
"","","","","","call-function","7","null","1855723","hgm1qvxbmg","2026-02-16","a134","null","6993847318dc337db478001f","Pilot_1","4","4","8","0.40","8","0.40","4","4","8","0","","","","","","","","","",""
"","","","","","html-keyboard-response","8","2.0.0","1860723","hgm1qvxbmg","2026-02-16","a134","null","6993847318dc337db478001f","Pilot_1","4","4","8","0.40","8","0.40","4","4","8","0","","","","","","","","Treasurer","SP2",""
"","","","","","html-keyboard-response","9","2.0.0","1864350","hgm1qvxbmg","2026-02-16","a134","null","6993847318dc337db478001f","Pilot_1","4","4","8","0.40","8","0.40","4","4","8","0","","","","","","","","SP2","Treasurer",""
"","","","","","html-keyboard-response","10","2.0.0","1867737","hgm1qvxbmg","2026-02-16","a134","null","6993847318dc337db478001f","Pilot_1","4","4","8","0.40","8","0.40","4","4","8","0","","","","","","","","Treasurer","SP1",""
"","","","","","html-keyboard-response","11","2.0.0","1871506","hgm1qvxbmg","2026-02-16","a134","null","6993847318dc337db478001f","Pilot_1","4","4","8","0.40","8","0.40","4","4","8","0","","","","","","","","SP1","Treasurer",""
"","","","","","html-keyboard-response","12","2.0.0","1875077","hgm1qvxbmg","2026-02-16","a134","null","6993847318dc337db478001f","Pilot_1","4","4","8","0.40","8","0.40","4","4","8","0","","","","","","","","Treasurer","SP2",""
"","","","","","html-keyboard-response","13","2.0.0","1880287","hgm1qvxbmg","2026-02-16","a134","null","6993847318dc337db478001f","Pilot_1","4","4","8","0.40","8","0.40","4","4","8","0","","","","","","","","SP2","Treasurer",""
"","","","","","html-keyboard-response","14","2.0.0","1885332","hgm1qvxbmg","2026-02-16","a134","null","6993847318dc337db478001f","Pilot_1","4","4","8","0.40","8","0.40","4","4","8","0","","","","","","","","Treasurer","SP2",""
"","","","","","html-keyboard-response","15","2.0.0","1890125","hgm1qvxbmg","2026-02-16","a134","null","6993847318dc337db478001f","Pilot_1","4","4","8","0.40","8","0.40","4","4","8","0","","","","","","","","SP2","Treasurer",""
"","","","","","html-keyboard-response","16","2.0.0","1895160","hgm1qvxbmg","2026-02-16","a134","null","6993847318dc337db478001f","Pilot_1","4","4","8","0.40","8","0.40","4","4","8","0","","","","","","","","Treasurer","SP1",""
"","","","","","html-keyboard-response","17","2.0.0","1898121","hgm1qvxbmg","2026-02-16","a134","null","6993847318dc337db478001f","Pilot_1","4","4","8","0.40","8","0.40","4","4","8","0","","","","","","","","SP1","Treasurer",""
"","","","","","html-keyboard-response","18","2.0.0","1902912","hgm1qvxbmg","2026-02-16","a134","null","6993847318dc337db478001f","Pilot_1","4","4","8","0.40","8","0.40","4","4","8","0","","","","","","","","Treasurer","SP2",""
"","","","","","html-keyboard-response","19","2.0.0","1906860","hgm1qvxbmg","2026-02-16","a134","null","6993847318dc337db478001f","Pilot_1","4","4","8","0.40","8","0.40","4","4","8","0","","","","","","","","SP2","Treasurer",""
"","","","","","html-keyboard-response","20","2.0.0","1910690","hgm1qvxbmg","2026-02-16","a134","null","6993847318dc337db478001f","Pilot_1","4","4","8","0.40","8","0.40","4","4","8","0","","","","","","","","Treasurer","SP2",""
"","","","","","html-keyboard-response","21","2.0.0","1914751","hgm1qvxbmg","2026-02-16","a134","null","6993847318dc337db478001f","Pilot_1","4","4","8","0.40","8","0.40","4","4","8","0","","","","","","","","SP2","Treasurer",""
"","","","","","html-keyboard-response","22","2.0.0","1919603","hgm1qvxbmg","2026-02-16","a134","null","6993847318dc337db478001f","Pilot_1","4","4","8","0.40","8","0.40","4","4","8","0","","","","","","","","Treasurer","SP1",""
"","","","","","html-keyboard-response","23","2.0.0","1922678","hgm1qvxbmg","2026-02-16","a134","null","6993847318dc337db478001f","Pilot_1","4","4","8","0.40","8","0.40","4","4","8","0","","","","","","","","SP1","Treasurer",""
"","","","","","html-keyboard-response","24","2.0.0","1926244","hgm1qvxbmg","2026-02-16","a134","null","6993847318dc337db478001f","Pilot_1","4","4","8","0.40","8","0.40","4","4","8","0","","","","","","","","Treasurer","SP2",""
"","","","","","html-keyboard-response","25","2.0.0","1931276","hgm1qvxbmg","2026-02-16","a134","null","6993847318dc337db478001f","Pilot_1","4","4","8","0.40","8","0.40","4","4","8","0","","","","","","","","SP2","SP1",""
"","","","","","html-keyboard-response","26","2.0.0","1934285","hgm1qvxbmg","2026-02-16","a134","null","6993847318dc337db478001f","Pilot_1","4","4","8","0.40","8","0.40","4","4","8","0","","","","","","","","SP1","Treasurer",""
"","","","","","html-keyboard-response","27","2.0.0","1938667","hgm1qvxbmg","2026-02-16","a134","null","6993847318dc337db478001f","Pilot_1","4","4","8","0.40","8","0.40","4","4","8","0","","","","","","","","Treasurer","SP2",""
"","","","","","html-keyboard-response","28","2.0.0","1943871","hgm1qvxbmg","2026-02-16","a134","null","6993847318dc337db478001f","Pilot_1","4","4","8","0.40","8","0.40","4","4","8","0","","","","","","","","SP2","Treasurer",""
"","","","","","html-keyboard-response","29","2.0.0","1948868","hgm1qvxbmg","2026-02-16","a134","null","6993847318dc337db478001f","Pilot_1","4","4","8","0.40","8","0.40","4","4","8","0","","","","","","","","Treasurer","SP1",""
"","","","","","html-keyboard-response","30","2.0.0","1951607","hgm1qvxbmg","2026-02-16","a134","null","6993847318dc337db478001f","Pilot_1","4","4","8","0.40","8","0.40","4","4","8","0","","","","","","","","SP1","Treasurer",""
"","","","","","html-keyboard-response","31","2.0.0","1956506","hgm1qvxbmg","2026-02-16","a134","null","6993847318dc337db478001f","Pilot_1","4","4","8","0.40","8","0.40","4","4","8","0","","","","","","","","Treasurer","SP2",""
"","","","","","html-keyboard-response","32","2.0.0","1961496","hgm1qvxbmg","2026-02-16","a134","null","6993847318dc337db478001f","Pilot_1","4","4","8","0.40","8","0.40","4","4","8","0","","","","","","","","SP2","SP1",""
"","","","","","html-keyboard-response","33","2.0.0","1964403","hgm1qvxbmg","2026-02-16","a134","null","6993847318dc337db478001f","Pilot_1","4","4","8","0.40","8","0.40","4","4","8","0","","","","","","","","SP1","Treasurer",""
"","","","","","html-keyboard-response","34","2.0.0","1969366","hgm1qvxbmg","2026-02-16","a134","null","6993847318dc337db478001f","Pilot_1","4","4","8","0.40","8","0.40","4","4","8","0","","","","","","","","Treasurer","SP2",""
"","","","","","html-keyboard-response","35","2.0.0","1973586","hgm1qvxbmg","2026-02-16","a134","null","6993847318dc337db478001f","Pilot_1","4","4","8","0.40","8","0.40","4","4","8","0","","","","","","","","SP2","Treasurer",""
"","","","","","html-keyboard-response","36","2.0.0","1978565","hgm1qvxbmg","2026-02-16","a134","null","6993847318dc337db478001f","Pilot_1","4","4","8","0.40","8","0.40","4","4","8","0","","","","","","","","Treasurer","SP2",""
"","","","","","html-keyboard-response","37","2.0.0","1982803","hgm1qvxbmg","2026-02-16","a134","null","6993847318dc337db478001f","Pilot_1","4","4","8","0.40","8","0.40","4","4","8","0","","","","","","","","SP2","Treasurer",""
"","","","","","html-keyboard-response","38","2.0.0","1987606","hgm1qvxbmg","2026-02-16","a134","null","6993847318dc337db478001f","Pilot_1","4","4","8","0.40","8","0.40","4","4","8","0","","","","","","","","Treasurer","SP2",""
"","","","","","html-keyboard-response","39","2.0.0","1992044","hgm1qvxbmg","2026-02-16","a134","null","6993847318dc337db478001f","Pilot_1","4","4","8","0.40","8","0.40","4","4","8","0","","","","","","","","SP2","SP1",""
"","","","","","html-keyboard-response","40","2.0.0","1995057","hgm1qvxbmg","2026-02-16","a134","null","6993847318dc337db478001f","Pilot_1","4","4","8","0.40","8","0.40","4","4","8","0","","","","","","","","SP1","Treasurer",""
"","","","","","html-keyboard-response","41","2.0.0","1998977","hgm1qvxbmg","2026-02-16","a134","null","6993847318dc337db478001f","Pilot_1","4","4","8","0.40","8","0.40","4","4","8","0","","","","","","","","Treasurer","SP2",""
"","","","","","html-keyboard-response","42","2.0.0","2002750","hgm1qvxbmg","2026-02-16","a134","null","6993847318dc337db478001f","Pilot_1","4","4","8","0.40","8","0.40","4","4","8","0","","","","","","","","SP2","SP1",""
"","","","","","html-keyboard-response","43","2.0.0","2005701","hgm1qvxbmg","2026-02-16","a134","null","6993847318dc337db478001f","Pilot_1","4","4","8","0.40","8","0.40","4","4","8","0","","","","","","","","SP1","Treasurer",""
"","","","","","html-button-response","44","2.0.0","2011835","hgm1qvxbmg","2026-02-16","a134","null","6993847318dc337db478001f","Pilot_1","4","4","8","0.40","8","0.40","4","4","8","0","end_game","6132","<h2>Game Over</h2>
              <p style=""width: 800px; text-align: start;"">The game has ended! You earned <b>8 points</b>, which is equivalent to <b>$0.40</b>.<br><br>
                Your fellow player, Standard Player 2, earned <b>8 points</b>, which is equivalent to <b>$0.40</b>.<br><br>
                Please click the button below to continue to the next part of the study.</p>","0","","","","","",""
"","","","","","survey-text","45","2.0.0","2033285","hgm1qvxbmg","2026-02-16","a134","null","6993847318dc337db478001f","Pilot_1","4","4","8","0.40","8","0.40","4","4","8","0","comprehension_check","21443","","{""SP1_ball_received_T"":""4"",""SP1_ball_received_SP2"":""4"",""SP2_ball_received_T"":""8""}","","","","","",""
"","","","","","html-slider-response","46","2.0.0","2055745","hgm1qvxbmg","2026-02-16","a134","null","6993847318dc337db478001f","Pilot_1","4","4","8","0.40","8","0.40","4","4","8","0","","22457","
  <p style=""width: 1000px; padding: 10px"">
    You may choose to reduce SP2’s earnings by giving up some of your own earnings. This is a <u>one-time, one-sided decision</u>. This means only you make this decision; SP2 will not make a corresponding decision.<br><br>

    For every <b>$0.01</b> you give up, SP2’s earnings are reduced by <b>$0.05</b>.<br>
    For example, giving up <b>$0.03</b> reduces SP2’s earnings by <b>$0.15</b>. Choosing $0 means no change to either participant's earnings.<br>
    Earnings for either participant cannot go below <b>$0</b>.<br><br>

    You may move the slider below to see how different choices would affect both participants’ earnings. Moving the slider does not finalize your decision. Your decision is only locked in once you click 'Continue' and move on to the next task.<br><br>

    There is no correct or expected choice. Please use the slider to indicate how much of your own earnings you would like to give up in order to reduce SP2's earnings.
    </p>

  <div style=""
    display:flex;
    justify-content:center;
    gap:100px;
    margin:30px 0;
    align-items:flex-end;
  "">

    <div style=""text-align:center;"">
      <div id=""sp1-baseline"" style=""font-weight: bold; margin-bottom:6px;"">$0.00</div>
      <div id=""sp1-coins""></div>
      <div style=""margin-top:6px;"">You (SP1)</div>
    </div>

    <div style=""text-align:center;"">
      <div id=""sp2-baseline"" style=""font-weight: bold; margin-bottom:6px;"">$0.00</div>
      <div id=""sp2-coins""></div>
      <div style=""margin-top:6px;"">SP2</div>
    </div>

  </div>
  ","0","","","","","","0"
"","","","","","call-function","47","null","2055746","hgm1qvxbmg","2026-02-16","a134","null","6993847318dc337db478001f","Pilot_1","4","4","8","0.40","8","0.40","4","4","8","0","","","","","","","","","",""
"","","","","","survey-text","48","2.0.0","2531717","hgm1qvxbmg","2026-02-16","a134","null","6993847318dc337db478001f","Pilot_1","4","4","8","0.40","8","0.40","4","4","8","0","","475957","","{""dv1_OE_game_satisfaction"":""I wasn't fully satisfied with how the game went. The Treasurer threw the ball to the second player way more than me. It was frustrating to see that it wasn't even with how much the ball was thrown to each player. If it weren't for player 2 throwing me the ball sometimes, I wouldn't have had many points at all."",""dv1_oe_playtime_satisfaction"":""No, I am not satisfied fully with how much that I got to play. The treasurer didn't throw the ball to me much, which made it so the only way that I could get points was if player two decided to throw me the ball. I was able to get points only because of this."",""dv1_oe_earnings_satisfaction"":""I am. I feel that it is a decent amount of money to make from playing a game. I didn't feel that the game was completely fair, however, the outcome of the game and the amount of money I got felt fair enough to me. I'm satisfied with that overall."",""dv1_oe_treasurer_behavior"":""I did not like the behavior of the treasurer during the game. I thought that it was very biased and threw the ball mostly to player two. It didn't meet my expectations at all. I wish that they would've made sure to throw the ball to each of us an equal amount of times."",""dv1_oe_sp2_behavior"":""I did like how SP2 behaved during the game. They noticed that I wasn't getting the ball thrown to me much by the treasurer so they threw me the ball. This allowed me to accumulate points since I wasn't being thrown the ball otherwise. It exceeded my expectations and I don't wish they did anything different. "",""dv1_oe_message_to_treasurer"":""I would tell them that I thought the way that they played the game was very unfair and it felt very biased towards one player. I would tell them that the way they behaved during the game made me feel very frustrated and took the fun out of the game."",""dv1_oe_message_to_sp2"":""I would tell SP2 that I really appreciated and liked the way they played the game. I would tell them that it made me feel much more included and positive about the game since they decided to throw the ball to me. I would tell them that I thought they were a really good person for making me feel included.""}","","","","","",""
"","","","","","survey-likert","49","2.0.0","2557655","hgm1qvxbmg","2026-02-16","a134","null","6993847318dc337db478001f","Pilot_1","4","4","8","0.40","8","0.40","4","4","8","0","","25934","","{""dv2_praising"":6,""dv2_insulting"":0,""dv2_avoiding"":0,""dv2_become_friends"":6,""dv2_unkind_things"":0,""dv2_helping"":6,""dv2_complementing"":6,""dv2_favor"":6,""dv2_invite_fun"":6,""dv2_ignore"":0}","[0,1,2,3,4,5,6,7,8,9]","","","","",""
"","","","","","survey-likert","50","2.0.0","2601288","hgm1qvxbmg","2026-02-16","a134","null","6993847318dc337db478001f","Pilot_1","4","4","8","0.40","8","0.40","4","4","8","0","","43627","","{""dv3_state_envy"":0,""dv3_state_jealous"":0,""dv3_state_bitter"":0,""dv3_state_resentful"":0,""dv3_state_happy"":6,""dv3_state_compassionate"":6,""dv3_state_surprised"":5,""dv3_state_grateful"":6,""dv3_state_thankful"":6,""dv3_state_sad"":0,""dv3_state_upset"":0,""dv3_state_disappointed"":0,""dv3_state_annoyed"":0,""dv3_state_angry"":0,""dv3_state_shame"":0,""dv3_state_contempt"":0,""dv3_state_joy"":6,""dv3_state_irritated"":0}","[0,1,2,3,4,5,6,7,8,9,10,11,12,13,14,15,16,17]","","","","",""
"","","","","","survey-likert","51","2.0.0","2635620","hgm1qvxbmg","2026-02-16","a134","null","6993847318dc337db478001f","Pilot_1","4","4","8","0.40","8","0.40","4","4","8","0","","34329","","{""dv3a_performed_well"":4,""dv3a_attention_check_1"":1,""dv3a_understood_rules"":6,""dv3a_game_unfair"":6,""dv3a_felt_excluded"":6,""dv3a_felt_malicious_envy"":1,""dv3a_wish_received_more"":6,""dv3a_game_different"":5,""dv3a_results_happy"":5,""dv3a_felt_ignored"":5,""dv3a_felt_bad_others"":0}","[9,5,8,0,6,7,3,2,1,4,10]","","","","",""
"","","","","","survey-likert","52","2.0.0","2656847","hgm1qvxbmg","2026-02-16","a134","null","6993847318dc337db478001f","Pilot_1","4","4","8","0.40","8","0.40","4","4","8","0","","21224","","{""dv3b_sp2_betrayal"":0,""dv3b_sp2_closeness"":6,""dv3b_sp2_deservingness"":6,""dv3b_sp2_unfiar"":0,""dv3b_sp2_rival"":0,""dv3b_sp2_shared_goals"":6,""dv3b_sp2_competition"":2,""dv3b_sp2_take_winnings"":0}","[1,0,4,2,7,6,5,3]","","","","",""
"","","","","","survey-likert","53","2.0.0","2677027","hgm1qvxbmg","2026-02-16","a134","null","6993847318dc337db478001f","Pilot_1","4","4","8","0.40","8","0.40","4","4","8","0","","20176","","{""dv3c_treasurer_closeness"":0,""dv3c_treasurer_betrayal"":5,""dv3b_treasurer_shared_goals"":0,""dv3b_treasurer_competition"":1,""dv3c_treasurer_unfair"":6,""dv3b_treasurer_rival"":5}","[0,1,4,3,2,5]","","","","",""
"","","","","","survey-likert","54","2.0.0","2755225","hgm1qvxbmg","2026-02-16","a134","null","6993847318dc337db478001f","Pilot_1","4","4","8","0.40","8","0.40","4","4","8","0","","78194","","{""dv4_rain_on_parade"":0,""dv4_trade_places_rev"":1,""dv4_angry_others_succeed"":0,""dv4_happy_friends_succeed_rev"":6,""dv4_content_with_self_rev"":1,""dv4_happy_others_succeed_rev"":6,""dv4_pain_friends_succeed"":0,""dv4_prefer_stranger_win"":0}","[0,1,2,3,4,5,6,7]","","","","",""
"","","","","","survey-multi-choice","55","2.1.0","2780480","hgm1qvxbmg","2026-02-16","a134","null","6993847318dc337db478001f","Pilot_1","4","4","8","0.40","8","0.40","4","4","8","0","","25252","","{""demo_attention_check_2"":""1000+"",""demo_sex"":""Female"",""demo_gender"":""Woman"",""demo_education"":""Some college, no degree"",""demo_social_class"":""1 = lower/working"",""demo_marital_status"":""Married/In a domestic partnership""}","[0,1,2,3,4,5]","","","","",""
"","","","","","survey-text","56","2.0.0","2783396","hgm1qvxbmg","2026-02-16","a134","null","6993847318dc337db478001f","Pilot_1","4","4","8","0.40","8","0.40","4","4","8","0","","2914","","{""demo_age"":""37""}","","","","","",""
"","","","","","survey-multi-select","57","null","2786029","hgm1qvxbmg","2026-02-16","a134","null","6993847318dc337db478001f","Pilot_1","4","4","8","0.40","8","0.40","4","4","8","0","","2629","","{""demo_race"":[""White""]}","[0]","","","","",""
"","","","","","survey-likert","58","2.0.0","2791274","hgm1qvxbmg","2026-02-16","a134","null","6993847318dc337db478001f","Pilot_1","4","4","8","0.40","8","0.40","4","4","8","0","","5243","","{""attention_check_3"":4}","[0]","","","","",""
"","","","","","survey-text","59","2.0.0","2828789","hgm1qvxbmg","2026-02-16","a134","null","6993847318dc337db478001f","Pilot_1","4","4","8","0.40","8","0.40","4","4","8","0","","37513","","{""funnel1"":""How someone would react to feeling excluded from a game"",""funnel2"":""If being treated unfairly would make someone feel excluded or ignored."",""funnel3"":""no""}","","","","","",""
