"success","timeout","failed_images","failed_audio","failed_video","trial_type","trial_index","plugin_version","time_elapsed","subject_id","experiment_date","prolific_id_last4","study_id","session_id","version","condition","schedule","sp1Points","sp1Dollars","sp2Points","sp2Dollars","SP1_ball_received_T","SP1_ball_received_SP2","SP2_ball_received_T","burn_amount","task","rt","stimulus","response","question_order","correct","value","from","to","slider_start"
"true","false","[]","[]","[]","preload","0","2.0.0","185","j0e4a4effr","2026-02-22","20a1","null","699b84fc7ff07ef6d0f8a7cd","Pilot_1","1","1","8","0.40","8","0.40","8","","8","0","","","","","","","","","",""
"","","","","","html-button-response","1","2.0.0","3150","j0e4a4effr","2026-02-22","20a1","null","699b84fc7ff07ef6d0f8a7cd","Pilot_1","1","1","8","0.40","8","0.40","8","","8","0","consent","2964","
    <p style = ""text-align: start; width: 900px""> You are being invited to participate in a research study titled: The Influence of Social Interactions on Decision Making.<br><br>
        This study is being done by Michael McCullough, PhD (Principal Investigator) from UC San Diego. You were selected to participate in this study because you are a representative member of the society the investigators wish to study. 
        The purpose of this research study is to explore how nonverbal social interactions affect the way people talk to themselves. Your participation in this research should last no longer than 30 minutes. If you agree to take part in this study, you will be asked to complete several surveys that ask about your feelings, beliefs, judgments, and personal background.
        Your participation in this study is completely voluntary and you can withdraw at any time. Choosing not to participate or withdrawing will result in no penalty or loss of benefits to which you are entitled. Research sometimes requires that information regarding its purpose not be shared with the research participants because its knowledge could impact the results of the research. 
        Note that none of the aspects of the research being withheld are reasonably expected to affect your willingness to take part. While the tasks you will be asked to perform for this research have been explained, the full intent of the research will not be provided until the completion of the study. At that time, you will have the opportunity to ask questions, including about the purpose of the study and the procedures used, and withdraw your data if you so choose.
        If you have questions about this project or if you have a research-related problem, you may contact the researcher(s), Michael McCullough, Ph.D., Department of Psychology, University of California, San Diego, 9500 Gilman Drive, La Jolla, CA 92093-0109 and by email at memccullough@ucsd.edu. If you have any questions concerning your rights as a research subject, you may contact the UC San Diego Office of IRB Administration at irb@ucsd.edu or 858-246-4777.
        By participating in this research, you are indicating that you are at least 18 years old, have read this consent form, and agree to participate in this research study. Please keep this consent form for your records.</p>
        <p>Do you consent?</p>","0","","","","","",""
"","","","","","html-button-response","2","2.0.0","10029","j0e4a4effr","2026-02-22","20a1","null","699b84fc7ff07ef6d0f8a7cd","Pilot_1","1","1","8","0.40","8","0.40","8","","8","0","study_description","6877","<h2>Study Description</h2>
                 <p style=""width: 900px; text-align: start"">Thank you for agreeing to participate in this study! This study seeks to understand how social interactions influence our decision-making processes.<br><br>
                 In this study, you will play a virtual ball-tossing game with two other participants. The game is designed to simulate social interactions and observe how they affect how you make decisions towards other people.<br><br>
                 The instructions for the game will be provided in the next section. To ensure that everyone understands the rules, there will be a short quiz. If you get any answers wrong, don't worry—you will have the opportunity to review the instructions and retake the quiz until you get all the answers correct.<br><br>
                 Please pay close attention to the game and try to engage with the other participants as naturally as possible.</p>","0","","","","","",""
"","","","","","html-button-response","3","2.0.0","44210","j0e4a4effr","2026-02-22","20a1","null","699b84fc7ff07ef6d0f8a7cd","Pilot_1","1","1","8","0.40","8","0.40","8","","8","0","game_instructions","34180","<h2>Game Instructions</h2>
                <p style=""width: 1000px; text-align: start"">In Cyberball there are three players: Standard Player 1 (SP1), Standard Player 2 (SP2), and a Treasurer. <b>You are SP1</b>.
                <br><br>
                Your objective in Cyberball is to earn points by tossing a ball. At the end of the game, the points will be converted into a monetary bonus. Each point you earn is worth $0.05. To help you keep track of points, there will be a scoreboard displayed in the top-right corner of the screen during the game.
                <br><br>
                The way the game works is that SP1 and SP2 individually earn points by tossing the ball to the Treasurer. Each time that SP1 or SP2 tossed the ball to the Treasurer, <u>the person who tossed the ball earns one point</u>. In other words, SP1 and SP2 earn points when they get the chance to toss the ball to the Treasurer.
                So, for example, if SP1 tosses the ball to the Treasurer, SP1 will earn one point and SP2 will not earn any points. Likewise, if SP2 tosses the ball to the Treasurer, SP2 will earn one point and SP1 will not earn anything. 
                <br><br>
                Keep in mind that SP1 and SP2 cannot earn points by tossing the ball to each other. SP1 and SP2 can only earn points by tossing the ball to the Treasurer.</p>","0","","","","","",""
"","","","","","survey-multi-choice","4","2.1.0","58347","j0e4a4effr","2026-02-22","20a1","null","699b84fc7ff07ef6d0f8a7cd","Pilot_1","1","1","8","0.40","8","0.40","8","","8","0","comprehension_quiz","14134","","{""role"":""Standard Player 1 (SP1)"",""points"":""By tossing the ball to the Treasurer"",""passing"":""Yes"",""passing_points"":""0 points""}","[0,1,2,3]","true","","","",""
"","","","","","html-button-response","5","2.0.0","60269","j0e4a4effr","2026-02-22","20a1","null","699b84fc7ff07ef6d0f8a7cd","Pilot_1","1","1","8","0.40","8","0.40","8","","8","0","","1921","<p style=""color:green; font-weight:bold"">Great! You have answered all questions correctly. Let's move on to the game.</p><p>If you need a refresh on the instructions, please click the button <i>Open Cyberball Rules</i> on the top left corner of your screen.</p>","0","","","","","",""
"","","","","","call-function","6","null","60270","j0e4a4effr","2026-02-22","20a1","null","699b84fc7ff07ef6d0f8a7cd","Pilot_1","1","1","8","0.40","8","0.40","8","","8","0","","","","","","","","","",""
"","","","","","call-function","7","null","60272","j0e4a4effr","2026-02-22","20a1","null","699b84fc7ff07ef6d0f8a7cd","Pilot_1","1","1","8","0.40","8","0.40","8","","8","0","","","","","","","","","",""
"","","","","","html-keyboard-response","8","2.0.0","64245","j0e4a4effr","2026-02-22","20a1","null","699b84fc7ff07ef6d0f8a7cd","Pilot_1","1","1","8","0.40","8","0.40","8","","8","0","","","","","","","","Treasurer","SP2",""
"","","","","","html-keyboard-response","9","2.0.0","68611","j0e4a4effr","2026-02-22","20a1","null","699b84fc7ff07ef6d0f8a7cd","Pilot_1","1","1","8","0.40","8","0.40","8","","8","0","","","","","","","","SP2","Treasurer",""
"","","","","","html-keyboard-response","10","2.0.0","72496","j0e4a4effr","2026-02-22","20a1","null","699b84fc7ff07ef6d0f8a7cd","Pilot_1","1","1","8","0.40","8","0.40","8","","8","0","","","","","","","","Treasurer","SP1",""
"","","","","","html-keyboard-response","11","2.0.0","75089","j0e4a4effr","2026-02-22","20a1","null","699b84fc7ff07ef6d0f8a7cd","Pilot_1","1","1","8","0.40","8","0.40","8","","8","0","","","","","","","","SP1","Treasurer",""
"","","","","","html-keyboard-response","12","2.0.0","79308","j0e4a4effr","2026-02-22","20a1","null","699b84fc7ff07ef6d0f8a7cd","Pilot_1","1","1","8","0.40","8","0.40","8","","8","0","","","","","","","","Treasurer","SP2",""
"","","","","","html-keyboard-response","13","2.0.0","84477","j0e4a4effr","2026-02-22","20a1","null","699b84fc7ff07ef6d0f8a7cd","Pilot_1","1","1","8","0.40","8","0.40","8","","8","0","","","","","","","","SP2","Treasurer",""
"","","","","","html-keyboard-response","14","2.0.0","88627","j0e4a4effr","2026-02-22","20a1","null","699b84fc7ff07ef6d0f8a7cd","Pilot_1","1","1","8","0.40","8","0.40","8","","8","0","","","","","","","","Treasurer","SP1",""
"","","","","","html-keyboard-response","15","2.0.0","93111","j0e4a4effr","2026-02-22","20a1","null","699b84fc7ff07ef6d0f8a7cd","Pilot_1","1","1","8","0.40","8","0.40","8","","8","0","","","","","","","","SP1","Treasurer",""
"","","","","","html-keyboard-response","16","2.0.0","96817","j0e4a4effr","2026-02-22","20a1","null","699b84fc7ff07ef6d0f8a7cd","Pilot_1","1","1","8","0.40","8","0.40","8","","8","0","","","","","","","","Treasurer","SP1",""
"","","","","","html-keyboard-response","17","2.0.0","99693","j0e4a4effr","2026-02-22","20a1","null","699b84fc7ff07ef6d0f8a7cd","Pilot_1","1","1","8","0.40","8","0.40","8","","8","0","","","","","","","","SP1","Treasurer",""
"","","","","","html-keyboard-response","18","2.0.0","104040","j0e4a4effr","2026-02-22","20a1","null","699b84fc7ff07ef6d0f8a7cd","Pilot_1","1","1","8","0.40","8","0.40","8","","8","0","","","","","","","","Treasurer","SP2",""
"","","","","","html-keyboard-response","19","2.0.0","107708","j0e4a4effr","2026-02-22","20a1","null","699b84fc7ff07ef6d0f8a7cd","Pilot_1","1","1","8","0.40","8","0.40","8","","8","0","","","","","","","","SP2","Treasurer",""
"","","","","","html-keyboard-response","20","2.0.0","112442","j0e4a4effr","2026-02-22","20a1","null","699b84fc7ff07ef6d0f8a7cd","Pilot_1","1","1","8","0.40","8","0.40","8","","8","0","","","","","","","","Treasurer","SP1",""
"","","","","","html-keyboard-response","21","2.0.0","115575","j0e4a4effr","2026-02-22","20a1","null","699b84fc7ff07ef6d0f8a7cd","Pilot_1","1","1","8","0.40","8","0.40","8","","8","0","","","","","","","","SP1","Treasurer",""
"","","","","","html-keyboard-response","22","2.0.0","119556","j0e4a4effr","2026-02-22","20a1","null","699b84fc7ff07ef6d0f8a7cd","Pilot_1","1","1","8","0.40","8","0.40","8","","8","0","","","","","","","","Treasurer","SP2",""
"","","","","","html-keyboard-response","23","2.0.0","124392","j0e4a4effr","2026-02-22","20a1","null","699b84fc7ff07ef6d0f8a7cd","Pilot_1","1","1","8","0.40","8","0.40","8","","8","0","","","","","","","","SP2","Treasurer",""
"","","","","","html-keyboard-response","24","2.0.0","129125","j0e4a4effr","2026-02-22","20a1","null","699b84fc7ff07ef6d0f8a7cd","Pilot_1","1","1","8","0.40","8","0.40","8","","8","0","","","","","","","","Treasurer","SP2",""
"","","","","","html-keyboard-response","25","2.0.0","133741","j0e4a4effr","2026-02-22","20a1","null","699b84fc7ff07ef6d0f8a7cd","Pilot_1","1","1","8","0.40","8","0.40","8","","8","0","","","","","","","","SP2","Treasurer",""
"","","","","","html-keyboard-response","26","2.0.0","137195","j0e4a4effr","2026-02-22","20a1","null","699b84fc7ff07ef6d0f8a7cd","Pilot_1","1","1","8","0.40","8","0.40","8","","8","0","","","","","","","","Treasurer","SP1",""
"","","","","","html-keyboard-response","27","2.0.0","139976","j0e4a4effr","2026-02-22","20a1","null","699b84fc7ff07ef6d0f8a7cd","Pilot_1","1","1","8","0.40","8","0.40","8","","8","0","","","","","","","","SP1","Treasurer",""
"","","","","","html-keyboard-response","28","2.0.0","144761","j0e4a4effr","2026-02-22","20a1","null","699b84fc7ff07ef6d0f8a7cd","Pilot_1","1","1","8","0.40","8","0.40","8","","8","0","","","","","","","","Treasurer","SP2",""
"","","","","","html-keyboard-response","29","2.0.0","149306","j0e4a4effr","2026-02-22","20a1","null","699b84fc7ff07ef6d0f8a7cd","Pilot_1","1","1","8","0.40","8","0.40","8","","8","0","","","","","","","","SP2","Treasurer",""
"","","","","","html-keyboard-response","30","2.0.0","153806","j0e4a4effr","2026-02-22","20a1","null","699b84fc7ff07ef6d0f8a7cd","Pilot_1","1","1","8","0.40","8","0.40","8","","8","0","","","","","","","","Treasurer","SP1",""
"","","","","","html-keyboard-response","31","2.0.0","156577","j0e4a4effr","2026-02-22","20a1","null","699b84fc7ff07ef6d0f8a7cd","Pilot_1","1","1","8","0.40","8","0.40","8","","8","0","","","","","","","","SP1","Treasurer",""
"","","","","","html-keyboard-response","32","2.0.0","161125","j0e4a4effr","2026-02-22","20a1","null","699b84fc7ff07ef6d0f8a7cd","Pilot_1","1","1","8","0.40","8","0.40","8","","8","0","","","","","","","","Treasurer","SP1",""
"","","","","","html-keyboard-response","33","2.0.0","163677","j0e4a4effr","2026-02-22","20a1","null","699b84fc7ff07ef6d0f8a7cd","Pilot_1","1","1","8","0.40","8","0.40","8","","8","0","","","","","","","","SP1","Treasurer",""
"","","","","","html-keyboard-response","34","2.0.0","167639","j0e4a4effr","2026-02-22","20a1","null","699b84fc7ff07ef6d0f8a7cd","Pilot_1","1","1","8","0.40","8","0.40","8","","8","0","","","","","","","","Treasurer","SP2",""
"","","","","","html-keyboard-response","35","2.0.0","172173","j0e4a4effr","2026-02-22","20a1","null","699b84fc7ff07ef6d0f8a7cd","Pilot_1","1","1","8","0.40","8","0.40","8","","8","0","","","","","","","","SP2","Treasurer",""
"","","","","","html-keyboard-response","36","2.0.0","175722","j0e4a4effr","2026-02-22","20a1","null","699b84fc7ff07ef6d0f8a7cd","Pilot_1","1","1","8","0.40","8","0.40","8","","8","0","","","","","","","","Treasurer","SP1",""
"","","","","","html-keyboard-response","37","2.0.0","178523","j0e4a4effr","2026-02-22","20a1","null","699b84fc7ff07ef6d0f8a7cd","Pilot_1","1","1","8","0.40","8","0.40","8","","8","0","","","","","","","","SP1","Treasurer",""
"","","","","","html-keyboard-response","38","2.0.0","182457","j0e4a4effr","2026-02-22","20a1","null","699b84fc7ff07ef6d0f8a7cd","Pilot_1","1","1","8","0.40","8","0.40","8","","8","0","","","","","","","","Treasurer","SP2",""
"","","","","","html-keyboard-response","39","2.0.0","187235","j0e4a4effr","2026-02-22","20a1","null","699b84fc7ff07ef6d0f8a7cd","Pilot_1","1","1","8","0.40","8","0.40","8","","8","0","","","","","","","","SP2","Treasurer",""
"","","","","","html-button-response","40","2.0.0","191343","j0e4a4effr","2026-02-22","20a1","null","699b84fc7ff07ef6d0f8a7cd","Pilot_1","1","1","8","0.40","8","0.40","8","","8","0","end_game","4107","<h2>Game Over</h2>
              <p style=""width: 800px; text-align: start;"">The game has ended! You earned <b>8 points</b>, which is equivalent to <b>$0.40</b>.<br><br>
                Your fellow player, Standard Player 2, earned <b>8 points</b>, which is equivalent to <b>$0.40</b>.<br><br>
                Please click the button below to continue to the next part of the study.</p>","0","","","","","",""
"","","","","","survey-text","41","2.0.0","202909","j0e4a4effr","2026-02-22","20a1","null","699b84fc7ff07ef6d0f8a7cd","Pilot_1","1","1","8","0.40","8","0.40","8","","8","0","comprehension_check","11561","","{""SP1_ball_received_T"":""8"",""SP2_ball_received_T"":""8""}","","","","","",""
"","","","","","html-slider-response","42","2.0.0","226142","j0e4a4effr","2026-02-22","20a1","null","699b84fc7ff07ef6d0f8a7cd","Pilot_1","1","1","8","0.40","8","0.40","8","","8","0","","23231","
  <p style=""width: 1000px; padding: 10px"">
    You may choose to reduce SP2’s earnings by giving up some of your own earnings. This is a <u>one-time, one-sided decision</u>. This means only you make this decision; SP2 will not make a corresponding decision.<br><br>

    For every <b>$0.01</b> you give up, SP2’s earnings are reduced by <b>$0.05</b>.<br>
    For example, giving up <b>$0.03</b> reduces SP2’s earnings by <b>$0.15</b>. Choosing $0 means no change to either participant's earnings.<br>
    Earnings for either participant cannot go below <b>$0</b>.<br><br>

    You may move the slider below to see how different choices would affect both participants’ earnings. Moving the slider does not finalize your decision. Your decision is only locked in once you click 'Continue' and move on to the next task.<br><br>

    There is no correct or expected choice. Please use the slider to indicate how much of your own earnings you would like to give up in order to reduce SP2's earnings.
    </p>

  <div style=""
    display:flex;
    justify-content:center;
    gap:100px;
    margin:30px 0;
    align-items:flex-end;
  "">

    <div style=""text-align:center;"">
      <div id=""sp1-baseline"" style=""font-weight: bold; margin-bottom:6px;"">$0.00</div>
      <div id=""sp1-coins""></div>
      <div style=""margin-top:6px;"">You (SP1)</div>
    </div>

    <div style=""text-align:center;"">
      <div id=""sp2-baseline"" style=""font-weight: bold; margin-bottom:6px;"">$0.00</div>
      <div id=""sp2-coins""></div>
      <div style=""margin-top:6px;"">SP2</div>
    </div>

  </div>
  ","0","","","","","","0"
"","","","","","call-function","43","null","226142","j0e4a4effr","2026-02-22","20a1","null","699b84fc7ff07ef6d0f8a7cd","Pilot_1","1","1","8","0.40","8","0.40","8","","8","0","","","","","","","","","",""
"","","","","","survey-text","44","2.0.0","673935","j0e4a4effr","2026-02-22","20a1","null","699b84fc7ff07ef6d0f8a7cd","Pilot_1","1","1","8","0.40","8","0.40","8","","8","0","","447773","","{""dv1_OE_game_satisfaction"":""It went as I planned because there was no benefit to passing the ball to player 2 so instead I kept passing it to the treasurer and player 2 did the same. Had player one passed the ball to me, then I would have also done the same and passed to them."",""dv1_oe_playtime_satisfaction"":""I am satisfied that we both got an equal share of the passes. It felt unbiased, although I'm still trying to grasp my mind around what the point of the game was. Had I passed it to player 2 and they never passed it to me then they would have higher earnings."",""dv1_oe_earnings_satisfaction"":""Yes I am satisfied because it was an equal share between me and player 2. Had player 2 made more money then I would be unsatisfied because we both deserved the same amount for the amount of time and effort we put in. The money isn't the main issue, it's about being fair."",""dv1_oe_treasurer_behavior"":""I liked their behavior because they passed the ball to each of us equally. At times, they passed to us a couple times in a row but made up for it by also passing it to the other person a couple times. They behaved in a neutral way which benefited both parties."",""dv1_oe_sp2_behavior"":""I dislike how player 2 behaved because they didn't pass the ball to me once. Now I could have been the first to initiate it and pass to them but I feel if they didn't pass it back to me then it would be a dumb decision on my end."",""dv1_oe_message_to_treasurer"":""I would say they did a good job on how they played the game because both me and player 2 had the same game plan going in. If one of us changed up the game plan then maybe the Treasurer would have acted differently and favored the person who deviated more."",""dv1_oe_message_to_sp2"":""Player 2 had you passed the ball to me then I would have equally passed it back to you. I advise you to take the lead in the future and trust that the other person will also have your back. This is advise I could also use because I could have been less selfish.""}","","","","","",""
"","","","","","survey-likert","45","2.0.0","715717","j0e4a4effr","2026-02-22","20a1","null","699b84fc7ff07ef6d0f8a7cd","Pilot_1","1","1","8","0.40","8","0.40","8","","8","0","","41779","","{""dv2_praising"":1,""dv2_insulting"":3,""dv2_avoiding"":5,""dv2_become_friends"":3,""dv2_unkind_things"":4,""dv2_helping"":3,""dv2_complementing"":3,""dv2_favor"":2,""dv2_invite_fun"":2,""dv2_ignore"":5}","[0,1,2,3,4,5,6,7,8,9]","","","","",""
"","","","","","survey-likert","46","2.0.0","783401","j0e4a4effr","2026-02-22","20a1","null","699b84fc7ff07ef6d0f8a7cd","Pilot_1","1","1","8","0.40","8","0.40","8","","8","0","","67680","","{""dv3_state_envy"":2,""dv3_state_jealous"":1,""dv3_state_bitter"":4,""dv3_state_resentful"":4,""dv3_state_happy"":2,""dv3_state_compassionate"":2,""dv3_state_surprised"":5,""dv3_state_grateful"":2,""dv3_state_thankful"":2,""dv3_state_sad"":5,""dv3_state_upset"":4,""dv3_state_disappointed"":5,""dv3_state_annoyed"":4,""dv3_state_angry"":3,""dv3_state_shame"":4,""dv3_state_contempt"":4,""dv3_state_joy"":2,""dv3_state_irritated"":4}","[0,1,2,3,4,5,6,7,8,9,10,11,12,13,14,15,16,17]","","","","",""
"","","","","","survey-likert","47","2.0.0","836035","j0e4a4effr","2026-02-22","20a1","null","699b84fc7ff07ef6d0f8a7cd","Pilot_1","1","1","8","0.40","8","0.40","8","","8","0","","52631","","{""dv3a_wish_received_more"":3,""dv3a_attention_check_1"":1,""dv3a_understood_rules"":6,""dv3a_performed_well"":6,""dv3a_game_unfair"":3,""dv3a_felt_excluded"":3,""dv3a_results_happy"":5,""dv3a_game_different"":2,""dv3a_felt_ignored"":3,""dv3a_felt_malicious_envy"":0,""dv3a_felt_bad_others"":1}","[3,5,8,9,0,6,1,2,4,7,10]","","","","",""
"","","","","","survey-likert","48","2.0.0","867814","j0e4a4effr","2026-02-22","20a1","null","699b84fc7ff07ef6d0f8a7cd","Pilot_1","1","1","8","0.40","8","0.40","8","","8","0","","31777","","{""dv3b_sp2_unfiar"":4,""dv3b_sp2_deservingness"":4,""dv3b_sp2_take_winnings"":1,""dv3b_sp2_shared_goals"":6,""dv3b_sp2_rival"":6,""dv3b_sp2_closeness"":1,""dv3b_sp2_competition"":6,""dv3b_sp2_betrayal"":4}","[2,4,3,6,7,0,5,1]","","","","",""
"","","","","","survey-likert","49","2.0.0","888064","j0e4a4effr","2026-02-22","20a1","null","699b84fc7ff07ef6d0f8a7cd","Pilot_1","1","1","8","0.40","8","0.40","8","","8","0","","20247","","{""dv3c_treasurer_betrayal"":0,""dv3b_treasurer_competition"":0,""dv3b_treasurer_rival"":1,""dv3b_treasurer_shared_goals"":3,""dv3c_treasurer_closeness"":3,""dv3c_treasurer_unfair"":1}","[1,3,5,4,0,2]","","","","",""
"","","","","","survey-likert","50","2.0.0","912730","j0e4a4effr","2026-02-22","20a1","null","699b84fc7ff07ef6d0f8a7cd","Pilot_1","1","1","8","0.40","8","0.40","8","","8","0","","24665","","{""dv4_rain_on_parade"":1,""dv4_trade_places_rev"":4,""dv4_angry_others_succeed"":2,""dv4_happy_friends_succeed_rev"":5,""dv4_content_with_self_rev"":3,""dv4_happy_others_succeed_rev"":2,""dv4_pain_friends_succeed"":2,""dv4_prefer_stranger_win"":1}","[0,1,2,3,4,5,6,7]","","","","",""
"","","","","","survey-multi-choice","51","2.1.0","935133","j0e4a4effr","2026-02-22","20a1","null","699b84fc7ff07ef6d0f8a7cd","Pilot_1","1","1","8","0.40","8","0.40","8","","8","0","","22401","","{""demo_attention_check_2"":""1000+"",""demo_sex"":""Male"",""demo_gender"":""Man"",""demo_education"":""Bachelor's degree (4-years)"",""demo_social_class"":""3 = middle"",""demo_marital_status"":""Never married""}","[0,1,2,3,4,5]","","","","",""
"","","","","","survey-text","52","2.0.0","938378","j0e4a4effr","2026-02-22","20a1","null","699b84fc7ff07ef6d0f8a7cd","Pilot_1","1","1","8","0.40","8","0.40","8","","8","0","","3243","","{""demo_age"":""32""}","","","","","",""
"","","","","","survey-multi-select","53","null","941214","j0e4a4effr","2026-02-22","20a1","null","699b84fc7ff07ef6d0f8a7cd","Pilot_1","1","1","8","0.40","8","0.40","8","","8","0","","2833","","{""demo_race"":[""Asian""]}","[0]","","","","",""
"","","","","","survey-likert","54","2.0.0","946094","j0e4a4effr","2026-02-22","20a1","null","699b84fc7ff07ef6d0f8a7cd","Pilot_1","1","1","8","0.40","8","0.40","8","","8","0","","4878","","{""attention_check_3"":4}","[0]","","","","",""
"","","","","","survey-text","55","2.0.0","980625","j0e4a4effr","2026-02-22","20a1","null","699b84fc7ff07ef6d0f8a7cd","Pilot_1","1","1","8","0.40","8","0.40","8","","8","0","","34529","","{""funnel1"":""Seeing how two people react when money is on the line"",""funnel2"":""If greed got in the way of giving up some potential income"",""funnel3"":""I want to know if p2 was a real person or a bot""}","","","","","",""
