"success","timeout","failed_images","failed_audio","failed_video","trial_type","trial_index","plugin_version","time_elapsed","subject_id","experiment_date","prolific_id_last4","study_id","session_id","version","condition","schedule","sp1Points","sp1Dollars","sp2Points","sp2Dollars","SP1_ball_received_T","SP1_ball_received_SP2","SP2_ball_received_T","burn_amount","task","rt","stimulus","response","question_order","correct","value","from","to","slider_start"
"true","false","[]","[]","[]","preload","0","2.0.0","10","lp9kxrl1qr","2026-02-22","2556","null","699b84f908a988e06a10b0d3","Pilot_1","4","4","8","0.40","8","0.40","10","5","15","0","","","","","","","","","",""
"","","","","","html-button-response","1","2.0.0","1884","lp9kxrl1qr","2026-02-22","2556","null","699b84f908a988e06a10b0d3","Pilot_1","4","4","8","0.40","8","0.40","10","5","15","0","consent","1873","
    <p style = ""text-align: start; width: 900px""> You are being invited to participate in a research study titled: The Influence of Social Interactions on Decision Making.<br><br>
        This study is being done by Michael McCullough, PhD (Principal Investigator) from UC San Diego. You were selected to participate in this study because you are a representative member of the society the investigators wish to study. 
        The purpose of this research study is to explore how nonverbal social interactions affect the way people talk to themselves. Your participation in this research should last no longer than 30 minutes. If you agree to take part in this study, you will be asked to complete several surveys that ask about your feelings, beliefs, judgments, and personal background.
        Your participation in this study is completely voluntary and you can withdraw at any time. Choosing not to participate or withdrawing will result in no penalty or loss of benefits to which you are entitled. Research sometimes requires that information regarding its purpose not be shared with the research participants because its knowledge could impact the results of the research. 
        Note that none of the aspects of the research being withheld are reasonably expected to affect your willingness to take part. While the tasks you will be asked to perform for this research have been explained, the full intent of the research will not be provided until the completion of the study. At that time, you will have the opportunity to ask questions, including about the purpose of the study and the procedures used, and withdraw your data if you so choose.
        If you have questions about this project or if you have a research-related problem, you may contact the researcher(s), Michael McCullough, Ph.D., Department of Psychology, University of California, San Diego, 9500 Gilman Drive, La Jolla, CA 92093-0109 and by email at memccullough@ucsd.edu. If you have any questions concerning your rights as a research subject, you may contact the UC San Diego Office of IRB Administration at irb@ucsd.edu or 858-246-4777.
        By participating in this research, you are indicating that you are at least 18 years old, have read this consent form, and agree to participate in this research study. Please keep this consent form for your records.</p>
        <p>Do you consent?</p>","0","","","","","",""
"","","","","","html-button-response","2","2.0.0","3490","lp9kxrl1qr","2026-02-22","2556","null","699b84f908a988e06a10b0d3","Pilot_1","4","4","8","0.40","8","0.40","10","5","15","0","study_description","1605","<h2>Study Description</h2>
                 <p style=""width: 900px; text-align: start"">Thank you for agreeing to participate in this study! This study seeks to understand how social interactions influence our decision-making processes.<br><br>
                 In this study, you will play a virtual ball-tossing game with two other participants. The game is designed to simulate social interactions and observe how they affect how you make decisions towards other people.<br><br>
                 The instructions for the game will be provided in the next section. To ensure that everyone understands the rules, there will be a short quiz. If you get any answers wrong, don't worry—you will have the opportunity to review the instructions and retake the quiz until you get all the answers correct.<br><br>
                 Please pay close attention to the game and try to engage with the other participants as naturally as possible.</p>","0","","","","","",""
"","","","","","html-button-response","3","2.0.0","4546","lp9kxrl1qr","2026-02-22","2556","null","699b84f908a988e06a10b0d3","Pilot_1","4","4","8","0.40","8","0.40","10","5","15","0","game_instructions","1055","<h2>Game Instructions</h2>
                <p style=""width: 1000px; text-align: start"">In Cyberball there are three players: Standard Player 1 (SP1), Standard Player 2 (SP2), and a Treasurer. <b>You are SP1</b>.
                <br><br>
                Your objective in Cyberball is to earn points by tossing a ball. At the end of the game, the points will be converted into a monetary bonus. Each point you earn is worth $0.05. To help you keep track of points, there will be a scoreboard displayed in the top-right corner of the screen during the game.<br>
                The way the game works is that SP1 and SP2 individually earn points by tossing the ball to the Treasurer. Each time that SP1 or SP2 tossed the ball to the Treasurer, <u>the person who tossed the ball earns one point</u>. In other words, SP1 and SP2 earn points when they get the chance to toss the ball to the Treasurer. Of course, you could toss the ball to whomever you want, but you will only earn points when you pass the ball to the Treasurer.
                So, for example, if SP1 tosses the ball to the Treasurer, SP1 will earn one point and SP2 will not earn any points. Likewise, if SP2 tosses the ball to the Treasurer, SP2 will earn one point and SP1 will not earn anything. 
                <br><br>
                Keep in mind that SP1 and SP2 cannot earn points by tossing the ball to each other.
                SP1 and SP2 can only earn points by tossing the ball to the Treasurer. So, for example, if SP1 tosses the ball to SP2, neither SP1 or SP2 will earn any points. But whoever then throws the ball to the Treasurer will earn a point.</p>","0","","","","","",""
"","","","","","survey-multi-choice","4","2.1.0","17711","lp9kxrl1qr","2026-02-22","2556","null","699b84f908a988e06a10b0d3","Pilot_1","4","4","8","0.40","8","0.40","10","5","15","0","comprehension_quiz","13163","","{""role"":""Standard Player 1 (SP1)"",""points"":""By tossing the ball to the Treasurer"",""passing"":""No"",""passing_points"":""Not allowed to pass to SP2""}","[0,1,2,3]","false","","","",""
"","","","","","html-button-response","5","2.0.0","20498","lp9kxrl1qr","2026-02-22","2556","null","699b84f908a988e06a10b0d3","Pilot_1","4","4","8","0.40","8","0.40","10","5","15","0","","2786","
    <p style=""color:red; font-weight:bold;"">
      Some of your answers were incorrect.
    </p>
    <p>Please re-read the instructions and try again.</p>","0","","","","","",""
"","","","","","html-button-response","6","2.0.0","21789","lp9kxrl1qr","2026-02-22","2556","null","699b84f908a988e06a10b0d3","Pilot_1","4","4","8","0.40","8","0.40","10","5","15","0","game_instructions","1289","<h2>Game Instructions</h2>
                <p style=""width: 1000px; text-align: start"">In Cyberball there are three players: Standard Player 1 (SP1), Standard Player 2 (SP2), and a Treasurer. <b>You are SP1</b>.
                <br><br>
                Your objective in Cyberball is to earn points by tossing a ball. At the end of the game, the points will be converted into a monetary bonus. Each point you earn is worth $0.05. To help you keep track of points, there will be a scoreboard displayed in the top-right corner of the screen during the game.<br>
                The way the game works is that SP1 and SP2 individually earn points by tossing the ball to the Treasurer. Each time that SP1 or SP2 tossed the ball to the Treasurer, <u>the person who tossed the ball earns one point</u>. In other words, SP1 and SP2 earn points when they get the chance to toss the ball to the Treasurer. Of course, you could toss the ball to whomever you want, but you will only earn points when you pass the ball to the Treasurer.
                So, for example, if SP1 tosses the ball to the Treasurer, SP1 will earn one point and SP2 will not earn any points. Likewise, if SP2 tosses the ball to the Treasurer, SP2 will earn one point and SP1 will not earn anything. 
                <br><br>
                Keep in mind that SP1 and SP2 cannot earn points by tossing the ball to each other.
                SP1 and SP2 can only earn points by tossing the ball to the Treasurer. So, for example, if SP1 tosses the ball to SP2, neither SP1 or SP2 will earn any points. But whoever then throws the ball to the Treasurer will earn a point.</p>","0","","","","","",""
"","","","","","survey-multi-choice","7","2.1.0","31937","lp9kxrl1qr","2026-02-22","2556","null","699b84f908a988e06a10b0d3","Pilot_1","4","4","8","0.40","8","0.40","10","5","15","0","comprehension_quiz","10145","","{""role"":""Standard Player 1 (SP1)"",""points"":""By tossing the ball to the Treasurer"",""passing"":""No"",""passing_points"":""Not allowed to pass to SP2""}","[0,1,2,3]","false","","","",""
"","","","","","html-button-response","8","2.0.0","33622","lp9kxrl1qr","2026-02-22","2556","null","699b84f908a988e06a10b0d3","Pilot_1","4","4","8","0.40","8","0.40","10","5","15","0","","1675","
    <p style=""color:red; font-weight:bold;"">
      Some of your answers were incorrect.
    </p>
    <p>Please re-read the instructions and try again.</p>","0","","","","","",""
"","","","","","html-button-response","9","2.0.0","35169","lp9kxrl1qr","2026-02-22","2556","null","699b84f908a988e06a10b0d3","Pilot_1","4","4","8","0.40","8","0.40","10","5","15","0","game_instructions","1546","<h2>Game Instructions</h2>
                <p style=""width: 1000px; text-align: start"">In Cyberball there are three players: Standard Player 1 (SP1), Standard Player 2 (SP2), and a Treasurer. <b>You are SP1</b>.
                <br><br>
                Your objective in Cyberball is to earn points by tossing a ball. At the end of the game, the points will be converted into a monetary bonus. Each point you earn is worth $0.05. To help you keep track of points, there will be a scoreboard displayed in the top-right corner of the screen during the game.<br>
                The way the game works is that SP1 and SP2 individually earn points by tossing the ball to the Treasurer. Each time that SP1 or SP2 tossed the ball to the Treasurer, <u>the person who tossed the ball earns one point</u>. In other words, SP1 and SP2 earn points when they get the chance to toss the ball to the Treasurer. Of course, you could toss the ball to whomever you want, but you will only earn points when you pass the ball to the Treasurer.
                So, for example, if SP1 tosses the ball to the Treasurer, SP1 will earn one point and SP2 will not earn any points. Likewise, if SP2 tosses the ball to the Treasurer, SP2 will earn one point and SP1 will not earn anything. 
                <br><br>
                Keep in mind that SP1 and SP2 cannot earn points by tossing the ball to each other.
                SP1 and SP2 can only earn points by tossing the ball to the Treasurer. So, for example, if SP1 tosses the ball to SP2, neither SP1 or SP2 will earn any points. But whoever then throws the ball to the Treasurer will earn a point.</p>","0","","","","","",""
"","","","","","survey-multi-choice","10","2.1.0","45662","lp9kxrl1qr","2026-02-22","2556","null","699b84f908a988e06a10b0d3","Pilot_1","4","4","8","0.40","8","0.40","10","5","15","0","comprehension_quiz","10491","","{""role"":""Standard Player 1 (SP1)"",""points"":""By tossing the ball to Standard Player 2 (SP2)"",""passing"":""No"",""passing_points"":""Not allowed to pass to SP2""}","[0,1,2,3]","false","","","",""
"","","","","","html-button-response","11","2.0.0","46972","lp9kxrl1qr","2026-02-22","2556","null","699b84f908a988e06a10b0d3","Pilot_1","4","4","8","0.40","8","0.40","10","5","15","0","","1309","
    <p style=""color:red; font-weight:bold;"">
      Some of your answers were incorrect.
    </p>
    <p>Please re-read the instructions and try again.</p>","0","","","","","",""
"","","","","","html-button-response","12","2.0.0","48404","lp9kxrl1qr","2026-02-22","2556","null","699b84f908a988e06a10b0d3","Pilot_1","4","4","8","0.40","8","0.40","10","5","15","0","game_instructions","1431","<h2>Game Instructions</h2>
                <p style=""width: 1000px; text-align: start"">In Cyberball there are three players: Standard Player 1 (SP1), Standard Player 2 (SP2), and a Treasurer. <b>You are SP1</b>.
                <br><br>
                Your objective in Cyberball is to earn points by tossing a ball. At the end of the game, the points will be converted into a monetary bonus. Each point you earn is worth $0.05. To help you keep track of points, there will be a scoreboard displayed in the top-right corner of the screen during the game.<br>
                The way the game works is that SP1 and SP2 individually earn points by tossing the ball to the Treasurer. Each time that SP1 or SP2 tossed the ball to the Treasurer, <u>the person who tossed the ball earns one point</u>. In other words, SP1 and SP2 earn points when they get the chance to toss the ball to the Treasurer. Of course, you could toss the ball to whomever you want, but you will only earn points when you pass the ball to the Treasurer.
                So, for example, if SP1 tosses the ball to the Treasurer, SP1 will earn one point and SP2 will not earn any points. Likewise, if SP2 tosses the ball to the Treasurer, SP2 will earn one point and SP1 will not earn anything. 
                <br><br>
                Keep in mind that SP1 and SP2 cannot earn points by tossing the ball to each other.
                SP1 and SP2 can only earn points by tossing the ball to the Treasurer. So, for example, if SP1 tosses the ball to SP2, neither SP1 or SP2 will earn any points. But whoever then throws the ball to the Treasurer will earn a point.</p>","0","","","","","",""
"","","","","","survey-multi-choice","13","2.1.0","59632","lp9kxrl1qr","2026-02-22","2556","null","699b84f908a988e06a10b0d3","Pilot_1","4","4","8","0.40","8","0.40","10","5","15","0","comprehension_quiz","11226","","{""role"":""Standard Player 1 (SP1)"",""points"":""By tossing the ball to the Treasurer"",""passing"":""No"",""passing_points"":""Not allowed to pass to SP2""}","[0,1,2,3]","false","","","",""
"","","","","","html-button-response","14","2.0.0","61034","lp9kxrl1qr","2026-02-22","2556","null","699b84f908a988e06a10b0d3","Pilot_1","4","4","8","0.40","8","0.40","10","5","15","0","","1396","
    <p style=""color:red; font-weight:bold;"">
      Some of your answers were incorrect.
    </p>
    <p>Please re-read the instructions and try again.</p>","0","","","","","",""
"","","","","","html-button-response","15","2.0.0","62334","lp9kxrl1qr","2026-02-22","2556","null","699b84f908a988e06a10b0d3","Pilot_1","4","4","8","0.40","8","0.40","10","5","15","0","game_instructions","1298","<h2>Game Instructions</h2>
                <p style=""width: 1000px; text-align: start"">In Cyberball there are three players: Standard Player 1 (SP1), Standard Player 2 (SP2), and a Treasurer. <b>You are SP1</b>.
                <br><br>
                Your objective in Cyberball is to earn points by tossing a ball. At the end of the game, the points will be converted into a monetary bonus. Each point you earn is worth $0.05. To help you keep track of points, there will be a scoreboard displayed in the top-right corner of the screen during the game.<br>
                The way the game works is that SP1 and SP2 individually earn points by tossing the ball to the Treasurer. Each time that SP1 or SP2 tossed the ball to the Treasurer, <u>the person who tossed the ball earns one point</u>. In other words, SP1 and SP2 earn points when they get the chance to toss the ball to the Treasurer. Of course, you could toss the ball to whomever you want, but you will only earn points when you pass the ball to the Treasurer.
                So, for example, if SP1 tosses the ball to the Treasurer, SP1 will earn one point and SP2 will not earn any points. Likewise, if SP2 tosses the ball to the Treasurer, SP2 will earn one point and SP1 will not earn anything. 
                <br><br>
                Keep in mind that SP1 and SP2 cannot earn points by tossing the ball to each other.
                SP1 and SP2 can only earn points by tossing the ball to the Treasurer. So, for example, if SP1 tosses the ball to SP2, neither SP1 or SP2 will earn any points. But whoever then throws the ball to the Treasurer will earn a point.</p>","0","","","","","",""
"","","","","","survey-multi-choice","16","2.1.0","79747","lp9kxrl1qr","2026-02-22","2556","null","699b84f908a988e06a10b0d3","Pilot_1","4","4","8","0.40","8","0.40","10","5","15","0","comprehension_quiz","17411","","{""role"":""Standard Player 2 (SP2)"",""points"":""By tossing the ball to the Treasurer"",""passing"":""No"",""passing_points"":""Not allowed to pass to SP2""}","[0,1,2,3]","false","","","",""
"","","","","","html-button-response","17","2.0.0","81482","lp9kxrl1qr","2026-02-22","2556","null","699b84f908a988e06a10b0d3","Pilot_1","4","4","8","0.40","8","0.40","10","5","15","0","","1733","
    <p style=""color:red; font-weight:bold;"">
      Some of your answers were incorrect.
    </p>
    <p>Please re-read the instructions and try again.</p>","0","","","","","",""
"","","","","","html-button-response","18","2.0.0","105772","lp9kxrl1qr","2026-02-22","2556","null","699b84f908a988e06a10b0d3","Pilot_1","4","4","8","0.40","8","0.40","10","5","15","0","game_instructions","24289","<h2>Game Instructions</h2>
                <p style=""width: 1000px; text-align: start"">In Cyberball there are three players: Standard Player 1 (SP1), Standard Player 2 (SP2), and a Treasurer. <b>You are SP1</b>.
                <br><br>
                Your objective in Cyberball is to earn points by tossing a ball. At the end of the game, the points will be converted into a monetary bonus. Each point you earn is worth $0.05. To help you keep track of points, there will be a scoreboard displayed in the top-right corner of the screen during the game.<br>
                The way the game works is that SP1 and SP2 individually earn points by tossing the ball to the Treasurer. Each time that SP1 or SP2 tossed the ball to the Treasurer, <u>the person who tossed the ball earns one point</u>. In other words, SP1 and SP2 earn points when they get the chance to toss the ball to the Treasurer. Of course, you could toss the ball to whomever you want, but you will only earn points when you pass the ball to the Treasurer.
                So, for example, if SP1 tosses the ball to the Treasurer, SP1 will earn one point and SP2 will not earn any points. Likewise, if SP2 tosses the ball to the Treasurer, SP2 will earn one point and SP1 will not earn anything. 
                <br><br>
                Keep in mind that SP1 and SP2 cannot earn points by tossing the ball to each other.
                SP1 and SP2 can only earn points by tossing the ball to the Treasurer. So, for example, if SP1 tosses the ball to SP2, neither SP1 or SP2 will earn any points. But whoever then throws the ball to the Treasurer will earn a point.</p>","0","","","","","",""
"","","","","","survey-multi-choice","19","2.1.0","124660","lp9kxrl1qr","2026-02-22","2556","null","699b84f908a988e06a10b0d3","Pilot_1","4","4","8","0.40","8","0.40","10","5","15","0","comprehension_quiz","18886","","{""role"":""Standard Player 1 (SP1)"",""points"":""By tossing the ball to the Treasurer"",""passing"":""No"",""passing_points"":""0 points""}","[0,1,2,3]","false","","","",""
"","","","","","html-button-response","20","2.0.0","126029","lp9kxrl1qr","2026-02-22","2556","null","699b84f908a988e06a10b0d3","Pilot_1","4","4","8","0.40","8","0.40","10","5","15","0","","1368","
    <p style=""color:red; font-weight:bold;"">
      Some of your answers were incorrect.
    </p>
    <p>Please re-read the instructions and try again.</p>","0","","","","","",""
"","","","","","html-button-response","21","2.0.0","137077","lp9kxrl1qr","2026-02-22","2556","null","699b84f908a988e06a10b0d3","Pilot_1","4","4","8","0.40","8","0.40","10","5","15","0","game_instructions","11046","<h2>Game Instructions</h2>
                <p style=""width: 1000px; text-align: start"">In Cyberball there are three players: Standard Player 1 (SP1), Standard Player 2 (SP2), and a Treasurer. <b>You are SP1</b>.
                <br><br>
                Your objective in Cyberball is to earn points by tossing a ball. At the end of the game, the points will be converted into a monetary bonus. Each point you earn is worth $0.05. To help you keep track of points, there will be a scoreboard displayed in the top-right corner of the screen during the game.<br>
                The way the game works is that SP1 and SP2 individually earn points by tossing the ball to the Treasurer. Each time that SP1 or SP2 tossed the ball to the Treasurer, <u>the person who tossed the ball earns one point</u>. In other words, SP1 and SP2 earn points when they get the chance to toss the ball to the Treasurer. Of course, you could toss the ball to whomever you want, but you will only earn points when you pass the ball to the Treasurer.
                So, for example, if SP1 tosses the ball to the Treasurer, SP1 will earn one point and SP2 will not earn any points. Likewise, if SP2 tosses the ball to the Treasurer, SP2 will earn one point and SP1 will not earn anything. 
                <br><br>
                Keep in mind that SP1 and SP2 cannot earn points by tossing the ball to each other.
                SP1 and SP2 can only earn points by tossing the ball to the Treasurer. So, for example, if SP1 tosses the ball to SP2, neither SP1 or SP2 will earn any points. But whoever then throws the ball to the Treasurer will earn a point.</p>","0","","","","","",""
"","","","","","survey-multi-choice","22","2.1.0","155981","lp9kxrl1qr","2026-02-22","2556","null","699b84f908a988e06a10b0d3","Pilot_1","4","4","8","0.40","8","0.40","10","5","15","0","comprehension_quiz","18902","","{""role"":""Standard Player 1 (SP1)"",""points"":""By tossing the ball to the Treasurer"",""passing"":""No"",""passing_points"":""Not allowed to pass to SP2""}","[0,1,2,3]","false","","","",""
"","","","","","html-button-response","23","2.0.0","157266","lp9kxrl1qr","2026-02-22","2556","null","699b84f908a988e06a10b0d3","Pilot_1","4","4","8","0.40","8","0.40","10","5","15","0","","1283","
    <p style=""color:red; font-weight:bold;"">
      Some of your answers were incorrect.
    </p>
    <p>Please re-read the instructions and try again.</p>","0","","","","","",""
"","","","","","html-button-response","24","2.0.0","195781","lp9kxrl1qr","2026-02-22","2556","null","699b84f908a988e06a10b0d3","Pilot_1","4","4","8","0.40","8","0.40","10","5","15","0","game_instructions","38515","<h2>Game Instructions</h2>
                <p style=""width: 1000px; text-align: start"">In Cyberball there are three players: Standard Player 1 (SP1), Standard Player 2 (SP2), and a Treasurer. <b>You are SP1</b>.
                <br><br>
                Your objective in Cyberball is to earn points by tossing a ball. At the end of the game, the points will be converted into a monetary bonus. Each point you earn is worth $0.05. To help you keep track of points, there will be a scoreboard displayed in the top-right corner of the screen during the game.<br>
                The way the game works is that SP1 and SP2 individually earn points by tossing the ball to the Treasurer. Each time that SP1 or SP2 tossed the ball to the Treasurer, <u>the person who tossed the ball earns one point</u>. In other words, SP1 and SP2 earn points when they get the chance to toss the ball to the Treasurer. Of course, you could toss the ball to whomever you want, but you will only earn points when you pass the ball to the Treasurer.
                So, for example, if SP1 tosses the ball to the Treasurer, SP1 will earn one point and SP2 will not earn any points. Likewise, if SP2 tosses the ball to the Treasurer, SP2 will earn one point and SP1 will not earn anything. 
                <br><br>
                Keep in mind that SP1 and SP2 cannot earn points by tossing the ball to each other.
                SP1 and SP2 can only earn points by tossing the ball to the Treasurer. So, for example, if SP1 tosses the ball to SP2, neither SP1 or SP2 will earn any points. But whoever then throws the ball to the Treasurer will earn a point.</p>","0","","","","","",""
"","","","","","survey-multi-choice","25","2.1.0","261290","lp9kxrl1qr","2026-02-22","2556","null","699b84f908a988e06a10b0d3","Pilot_1","4","4","8","0.40","8","0.40","10","5","15","0","comprehension_quiz","65507","","{""role"":""Standard Player 1 (SP1)"",""points"":""By tossing the ball to the Treasurer"",""passing"":""Yes"",""passing_points"":""0 points""}","[0,1,2,3]","true","","","",""
"","","","","","html-button-response","26","2.0.0","263125","lp9kxrl1qr","2026-02-22","2556","null","699b84f908a988e06a10b0d3","Pilot_1","4","4","8","0.40","8","0.40","10","5","15","0","","1833","<p style=""color:green; font-weight:bold"">Great! You have answered all questions correctly. Let's move on to the game.</p><p>If you need a refresh on the instructions, please click the button <i>Open Cyberball Rules</i> on the top left corner of your screen.</p>","0","","","","","",""
"","","","","","call-function","27","null","263126","lp9kxrl1qr","2026-02-22","2556","null","699b84f908a988e06a10b0d3","Pilot_1","4","4","8","0.40","8","0.40","10","5","15","0","","","","","","","","","",""
"","","","","","call-function","28","null","263128","lp9kxrl1qr","2026-02-22","2556","null","699b84f908a988e06a10b0d3","Pilot_1","4","4","8","0.40","8","0.40","10","5","15","0","","","","","","","","","",""
"","","","","","html-keyboard-response","29","2.0.0","267876","lp9kxrl1qr","2026-02-22","2556","null","699b84f908a988e06a10b0d3","Pilot_1","4","4","8","0.40","8","0.40","10","5","15","0","","","","","","","","Treasurer","SP2",""
"","","","","","html-keyboard-response","30","2.0.0","271277","lp9kxrl1qr","2026-02-22","2556","null","699b84f908a988e06a10b0d3","Pilot_1","4","4","8","0.40","8","0.40","10","5","15","0","","","","","","","","SP2","Treasurer",""
"","","","","","html-keyboard-response","31","2.0.0","274845","lp9kxrl1qr","2026-02-22","2556","null","699b84f908a988e06a10b0d3","Pilot_1","4","4","8","0.40","8","0.40","10","5","15","0","","","","","","","","Treasurer","SP1",""
"","","","","","html-keyboard-response","32","2.0.0","277200","lp9kxrl1qr","2026-02-22","2556","null","699b84f908a988e06a10b0d3","Pilot_1","4","4","8","0.40","8","0.40","10","5","15","0","","","","","","","","SP1","Treasurer",""
"","","","","","html-keyboard-response","33","2.0.0","280732","lp9kxrl1qr","2026-02-22","2556","null","699b84f908a988e06a10b0d3","Pilot_1","4","4","8","0.40","8","0.40","10","5","15","0","","","","","","","","Treasurer","SP2",""
"","","","","","html-keyboard-response","34","2.0.0","284936","lp9kxrl1qr","2026-02-22","2556","null","699b84f908a988e06a10b0d3","Pilot_1","4","4","8","0.40","8","0.40","10","5","15","0","","","","","","","","SP2","Treasurer",""
"","","","","","html-keyboard-response","35","2.0.0","289274","lp9kxrl1qr","2026-02-22","2556","null","699b84f908a988e06a10b0d3","Pilot_1","4","4","8","0.40","8","0.40","10","5","15","0","","","","","","","","Treasurer","SP2",""
"","","","","","html-keyboard-response","36","2.0.0","293379","lp9kxrl1qr","2026-02-22","2556","null","699b84f908a988e06a10b0d3","Pilot_1","4","4","8","0.40","8","0.40","10","5","15","0","","","","","","","","SP2","Treasurer",""
"","","","","","html-keyboard-response","37","2.0.0","296609","lp9kxrl1qr","2026-02-22","2556","null","699b84f908a988e06a10b0d3","Pilot_1","4","4","8","0.40","8","0.40","10","5","15","0","","","","","","","","Treasurer","SP1",""
"","","","","","html-keyboard-response","38","2.0.0","299225","lp9kxrl1qr","2026-02-22","2556","null","699b84f908a988e06a10b0d3","Pilot_1","4","4","8","0.40","8","0.40","10","5","15","0","","","","","","","","SP1","Treasurer",""
"","","","","","html-keyboard-response","39","2.0.0","299510","lp9kxrl1qr","2026-02-22","2556","null","699b84f908a988e06a10b0d3","Pilot_1","4","4","8","0.40","8","0.40","10","5","15","0","","","","","","","","SP1","Treasurer",""
"","","","","","html-keyboard-response","40","2.0.0","303085","lp9kxrl1qr","2026-02-22","2556","null","699b84f908a988e06a10b0d3","Pilot_1","4","4","8","0.40","8","0.40","10","5","15","0","","","","","","","","Treasurer","SP2",""
"","","","","","html-keyboard-response","41","2.0.0","304580","lp9kxrl1qr","2026-02-22","2556","null","699b84f908a988e06a10b0d3","Pilot_1","4","4","8","0.40","8","0.40","10","5","15","0","","","","","","","","SP2","Treasurer",""
"","","","","","html-keyboard-response","42","2.0.0","307603","lp9kxrl1qr","2026-02-22","2556","null","699b84f908a988e06a10b0d3","Pilot_1","4","4","8","0.40","8","0.40","10","5","15","0","","","","","","","","Treasurer","SP2",""
"","","","","","html-keyboard-response","43","2.0.0","308866","lp9kxrl1qr","2026-02-22","2556","null","699b84f908a988e06a10b0d3","Pilot_1","4","4","8","0.40","8","0.40","10","5","15","0","","","","","","","","SP2","Treasurer",""
"","","","","","html-keyboard-response","44","2.0.0","311373","lp9kxrl1qr","2026-02-22","2556","null","699b84f908a988e06a10b0d3","Pilot_1","4","4","8","0.40","8","0.40","10","5","15","0","","","","","","","","Treasurer","SP1",""
"","","","","","html-keyboard-response","45","2.0.0","312006","lp9kxrl1qr","2026-02-22","2556","null","699b84f908a988e06a10b0d3","Pilot_1","4","4","8","0.40","8","0.40","10","5","15","0","","","","","","","","SP1","Treasurer",""
"","","","","","html-keyboard-response","46","2.0.0","315107","lp9kxrl1qr","2026-02-22","2556","null","699b84f908a988e06a10b0d3","Pilot_1","4","4","8","0.40","8","0.40","10","5","15","0","","","","","","","","Treasurer","SP2",""
"","","","","","html-keyboard-response","47","2.0.0","315357","lp9kxrl1qr","2026-02-22","2556","null","699b84f908a988e06a10b0d3","Pilot_1","4","4","8","0.40","8","0.40","10","5","15","0","","","","","","","","SP2","SP1",""
"","","","","","html-keyboard-response","48","2.0.0","319660","lp9kxrl1qr","2026-02-22","2556","null","699b84f908a988e06a10b0d3","Pilot_1","4","4","8","0.40","8","0.40","10","5","15","0","","","","","","","","Treasurer","SP2",""
"","","","","","html-keyboard-response","49","2.0.0","323632","lp9kxrl1qr","2026-02-22","2556","null","699b84f908a988e06a10b0d3","Pilot_1","4","4","8","0.40","8","0.40","10","5","15","0","","","","","","","","SP2","Treasurer",""
"","","","","","html-keyboard-response","50","2.0.0","327629","lp9kxrl1qr","2026-02-22","2556","null","699b84f908a988e06a10b0d3","Pilot_1","4","4","8","0.40","8","0.40","10","5","15","0","","","","","","","","Treasurer","SP1",""
"","","","","","html-keyboard-response","51","2.0.0","330066","lp9kxrl1qr","2026-02-22","2556","null","699b84f908a988e06a10b0d3","Pilot_1","4","4","8","0.40","8","0.40","10","5","15","0","","","","","","","","SP1","Treasurer",""
"","","","","","html-keyboard-response","52","2.0.0","335268","lp9kxrl1qr","2026-02-22","2556","null","699b84f908a988e06a10b0d3","Pilot_1","4","4","8","0.40","8","0.40","10","5","15","0","","","","","","","","Treasurer","SP2",""
"","","","","","html-keyboard-response","53","2.0.0","339174","lp9kxrl1qr","2026-02-22","2556","null","699b84f908a988e06a10b0d3","Pilot_1","4","4","8","0.40","8","0.40","10","5","15","0","","","","","","","","SP2","SP1",""
"","","","","","html-keyboard-response","54","2.0.0","341595","lp9kxrl1qr","2026-02-22","2556","null","699b84f908a988e06a10b0d3","Pilot_1","4","4","8","0.40","8","0.40","10","5","15","0","","","","","","","","SP1","Treasurer",""
"","","","","","html-keyboard-response","55","2.0.0","341891","lp9kxrl1qr","2026-02-22","2556","null","699b84f908a988e06a10b0d3","Pilot_1","4","4","8","0.40","8","0.40","10","5","15","0","","","","","","","","SP1","Treasurer",""
"","","","","","html-keyboard-response","56","2.0.0","345724","lp9kxrl1qr","2026-02-22","2556","null","699b84f908a988e06a10b0d3","Pilot_1","4","4","8","0.40","8","0.40","10","5","15","0","","","","","","","","Treasurer","SP2",""
"","","","","","html-keyboard-response","57","2.0.0","346078","lp9kxrl1qr","2026-02-22","2556","null","699b84f908a988e06a10b0d3","Pilot_1","4","4","8","0.40","8","0.40","10","5","15","0","","","","","","","","SP2","Treasurer",""
"","","","","","html-keyboard-response","58","2.0.0","350614","lp9kxrl1qr","2026-02-22","2556","null","699b84f908a988e06a10b0d3","Pilot_1","4","4","8","0.40","8","0.40","10","5","15","0","","","","","","","","SP2","Treasurer",""
"","","","","","html-keyboard-response","59","2.0.0","350743","lp9kxrl1qr","2026-02-22","2556","null","699b84f908a988e06a10b0d3","Pilot_1","4","4","8","0.40","8","0.40","10","5","15","0","","","","","","","","Treasurer","SP2",""
"","","","","","html-keyboard-response","60","2.0.0","353837","lp9kxrl1qr","2026-02-22","2556","null","699b84f908a988e06a10b0d3","Pilot_1","4","4","8","0.40","8","0.40","10","5","15","0","","","","","","","","Treasurer","SP2",""
"","","","","","html-keyboard-response","61","2.0.0","357471","lp9kxrl1qr","2026-02-22","2556","null","699b84f908a988e06a10b0d3","Pilot_1","4","4","8","0.40","8","0.40","10","5","15","0","","","","","","","","SP2","SP1",""
"","","","","","html-keyboard-response","62","2.0.0","362257","lp9kxrl1qr","2026-02-22","2556","null","699b84f908a988e06a10b0d3","Pilot_1","4","4","8","0.40","8","0.40","10","5","15","0","","","","","","","","Treasurer","SP2",""
"","","","","","html-keyboard-response","63","2.0.0","367424","lp9kxrl1qr","2026-02-22","2556","null","699b84f908a988e06a10b0d3","Pilot_1","4","4","8","0.40","8","0.40","10","5","15","0","","","","","","","","SP2","SP1",""
"","","","","","html-keyboard-response","64","2.0.0","370317","lp9kxrl1qr","2026-02-22","2556","null","699b84f908a988e06a10b0d3","Pilot_1","4","4","8","0.40","8","0.40","10","5","15","0","","","","","","","","SP1","Treasurer",""
"","","","","","html-button-response","65","2.0.0","683531","lp9kxrl1qr","2026-02-22","2556","null","699b84f908a988e06a10b0d3","Pilot_1","4","4","8","0.40","8","0.40","10","5","15","0","end_game","313211","<h2>Game Over</h2>
              <p style=""width: 800px; text-align: start;"">The game has ended! You earned <b>8 points</b>, which is equivalent to <b>$0.40</b>.<br><br>
                Your fellow player, Standard Player 2, earned <b>8 points</b>, which is equivalent to <b>$0.40</b>.<br><br>
                Please click the button below to continue to the next part of the study.</p>","0","","","","","",""
"","","","","","survey-text","66","2.0.0","733465","lp9kxrl1qr","2026-02-22","2556","null","699b84f908a988e06a10b0d3","Pilot_1","4","4","8","0.40","8","0.40","10","5","15","0","comprehension_check","49880","","{""SP1_ball_received_T"":""10"",""SP1_ball_received_SP2"":""5"",""SP2_ball_received_T"":""15""}","","","","","",""
"","","","","","html-slider-response","67","2.0.0","841375","lp9kxrl1qr","2026-02-22","2556","null","699b84f908a988e06a10b0d3","Pilot_1","4","4","8","0.40","8","0.40","10","5","15","0","","107905","
  <p style=""width: 1000px; padding: 10px"">
    You may choose to reduce SP2’s earnings by giving up some of your own earnings. This is a <u>one-time, one-sided decision</u>. This means only you make this decision; SP2 will not make a corresponding decision.<br><br>

    For every <b>$0.01</b> you give up, SP2’s earnings are reduced by <b>$0.05</b>.<br>
    For example, giving up <b>$0.03</b> reduces SP2’s earnings by <b>$0.15</b>. Choosing $0 means no change to either participant's earnings.<br>
    Earnings for either participant cannot go below <b>$0</b>.<br><br>

    You may move the slider below to see how different choices would affect both participants’ earnings. Moving the slider does not finalize your decision. Your decision is only locked in once you click 'Continue' and move on to the next task.<br><br>

    There is no correct or expected choice. Please use the slider to indicate how much of your own earnings you would like to give up in order to reduce SP2's earnings.
    </p>

  <div style=""
    display:flex;
    justify-content:center;
    gap:100px;
    margin:30px 0;
    align-items:flex-end;
  "">

    <div style=""text-align:center;"">
      <div id=""sp1-baseline"" style=""font-weight: bold; margin-bottom:6px;"">$0.00</div>
      <div id=""sp1-coins""></div>
      <div style=""margin-top:6px;"">You (SP1)</div>
    </div>

    <div style=""text-align:center;"">
      <div id=""sp2-baseline"" style=""font-weight: bold; margin-bottom:6px;"">$0.00</div>
      <div id=""sp2-coins""></div>
      <div style=""margin-top:6px;"">SP2</div>
    </div>

  </div>
  ","0","","","","","","0"
"","","","","","call-function","68","null","841377","lp9kxrl1qr","2026-02-22","2556","null","699b84f908a988e06a10b0d3","Pilot_1","4","4","8","0.40","8","0.40","10","5","15","0","","","","","","","","","",""
"","","","","","survey-text","69","2.0.0","2342841","lp9kxrl1qr","2026-02-22","2556","null","699b84f908a988e06a10b0d3","Pilot_1","4","4","8","0.40","8","0.40","10","5","15","0","","1501344","","{""dv1_OE_game_satisfaction"":""Yes, i could do more and do well, the treasurer did not pass me the ball as many times as i would have wanted the treasurer favored the standard player 2 in many throws. The score is is good even though i feel i could have done better if there ware more throws  to SP2  "",""dv1_oe_playtime_satisfaction"":""No, i did not play that much as the  timer for the game had a shorter duration. The treasurer favored the standard player 2 when throwing therefore standard player received less throws although i got the chance to play 8 throws it is not that bad and i faired on well."",""dv1_oe_earnings_satisfaction"":""I was slightly satisfied with the amount of money that i made, i although felt like i would have made more if i was given more chances to throw the ball back to the treasurer. Generally i feel if i repeat the task i will earn more money by throwing the ball to the treasurer"",""dv1_oe_treasurer_behavior"":""The behavior of the treasurer was bias, the treasurer favored the standard player 2 which i disliked as i had to wait for some period of time to get my turn to throw the ball to the treasurer. I wish the treasure would have thrown the ball fairly to both players."",""dv1_oe_sp2_behavior"":""Sp2 was determined to earn more points and throw the ball to the treasurer. SP2 sometimes threw the ball back to  standard player 2 which was not allowed that was below expectations. SP2 should have focused on the treasurer when throwing the  ball to earn more points and do well."",""dv1_oe_message_to_treasurer"":""You should be fair when throwing the ball to both standard players and be fast when throwing the ball, there was a significant amount of time that was wasted when holding the ball, my points were less because i did not throw more balls as i had expected due to limited chances."",""dv1_oe_message_to_sp2"":""You should be fast when receiving and returning the ball to the treasurer.  You should avoid sending the ball back to me as it means that we both will not earn any point from that throw. You did well though in those rounds and better luck next time when throwing the ball.""}","","","","","",""
"","","","","","survey-likert","70","2.0.0","2397795","lp9kxrl1qr","2026-02-22","2556","null","699b84f908a988e06a10b0d3","Pilot_1","4","4","8","0.40","8","0.40","10","5","15","0","","54949","","{""dv2_praising"":4,""dv2_insulting"":3,""dv2_avoiding"":2,""dv2_become_friends"":3,""dv2_unkind_things"":2,""dv2_helping"":4,""dv2_complementing"":3,""dv2_favor"":5,""dv2_invite_fun"":4,""dv2_ignore"":3}","[0,1,2,3,4,5,6,7,8,9]","","","","",""
"","","","","","survey-likert","71","2.0.0","2465938","lp9kxrl1qr","2026-02-22","2556","null","699b84f908a988e06a10b0d3","Pilot_1","4","4","8","0.40","8","0.40","10","5","15","0","","68139","","{""dv3_state_envy"":2,""dv3_state_jealous"":2,""dv3_state_bitter"":2,""dv3_state_resentful"":1,""dv3_state_happy"":5,""dv3_state_compassionate"":4,""dv3_state_surprised"":4,""dv3_state_grateful"":5,""dv3_state_thankful"":4,""dv3_state_sad"":1,""dv3_state_upset"":4,""dv3_state_disappointed"":3,""dv3_state_annoyed"":2,""dv3_state_angry"":0,""dv3_state_shame"":0,""dv3_state_contempt"":2,""dv3_state_joy"":5,""dv3_state_irritated"":4}","[0,1,2,3,4,5,6,7,8,9,10,11,12,13,14,15,16,17]","","","","",""
"","","","","","survey-likert","72","2.0.0","2510564","lp9kxrl1qr","2026-02-22","2556","null","699b84f908a988e06a10b0d3","Pilot_1","4","4","8","0.40","8","0.40","10","5","15","0","","44621","","{""dv3a_game_unfair"":2,""dv3a_understood_rules"":4,""dv3a_results_happy"":4,""dv3a_felt_excluded"":3,""dv3a_felt_bad_others"":3,""dv3a_attention_check_1"":1,""dv3a_felt_ignored"":5,""dv3a_wish_received_more"":5,""dv3a_felt_malicious_envy"":5,""dv3a_performed_well"":5,""dv3a_game_different"":4}","[0,8,1,6,10,5,4,3,7,9,2]","","","","",""
"","","","","","survey-likert","73","2.0.0","2560561","lp9kxrl1qr","2026-02-22","2556","null","699b84f908a988e06a10b0d3","Pilot_1","4","4","8","0.40","8","0.40","10","5","15","0","","49993","","{""dv3b_sp2_take_winnings"":6,""dv3b_sp2_shared_goals"":3,""dv3b_sp2_betrayal"":2,""dv3b_sp2_deservingness"":5,""dv3b_sp2_closeness"":3,""dv3b_sp2_rival"":3,""dv3b_sp2_unfiar"":3,""dv3b_sp2_competition"":1}","[3,6,1,4,0,7,2,5]","","","","",""
"","","","","","survey-likert","74","2.0.0","2598449","lp9kxrl1qr","2026-02-22","2556","null","699b84f908a988e06a10b0d3","Pilot_1","4","4","8","0.40","8","0.40","10","5","15","0","","37886","","{""dv3b_treasurer_shared_goals"":3,""dv3c_treasurer_closeness"":3,""dv3c_treasurer_betrayal"":2,""dv3b_treasurer_rival"":1,""dv3c_treasurer_unfair"":3,""dv3b_treasurer_competition"":3}","[4,0,1,5,2,3]","","","","",""
"","","","","","survey-likert","75","2.0.0","2652164","lp9kxrl1qr","2026-02-22","2556","null","699b84f908a988e06a10b0d3","Pilot_1","4","4","8","0.40","8","0.40","10","5","15","0","","53712","","{""dv4_rain_on_parade"":2,""dv4_trade_places_rev"":2,""dv4_angry_others_succeed"":1,""dv4_happy_friends_succeed_rev"":4,""dv4_content_with_self_rev"":6,""dv4_happy_others_succeed_rev"":4,""dv4_pain_friends_succeed"":1,""dv4_prefer_stranger_win"":5}","[0,1,2,3,4,5,6,7]","","","","",""
"","","","","","survey-multi-choice","76","2.1.0","2676300","lp9kxrl1qr","2026-02-22","2556","null","699b84f908a988e06a10b0d3","Pilot_1","4","4","8","0.40","8","0.40","10","5","15","0","","24133","","{""demo_attention_check_2"":""1000+"",""demo_sex"":""Female"",""demo_gender"":""Woman"",""demo_education"":""Doctorate degree"",""demo_social_class"":""3 = middle"",""demo_marital_status"":""Married/In a domestic partnership""}","[0,1,2,3,4,5]","","","","",""
"","","","","","survey-text","77","2.0.0","2680039","lp9kxrl1qr","2026-02-22","2556","null","699b84f908a988e06a10b0d3","Pilot_1","4","4","8","0.40","8","0.40","10","5","15","0","","3736","","{""demo_age"":""63""}","","","","","",""
"","","","","","survey-multi-select","78","null","2682477","lp9kxrl1qr","2026-02-22","2556","null","699b84f908a988e06a10b0d3","Pilot_1","4","4","8","0.40","8","0.40","10","5","15","0","","2433","","{""demo_race"":[""White""]}","[0]","","","","",""
"","","","","","survey-likert","79","2.0.0","2689024","lp9kxrl1qr","2026-02-22","2556","null","699b84f908a988e06a10b0d3","Pilot_1","4","4","8","0.40","8","0.40","10","5","15","0","","6546","","{""attention_check_3"":3}","[0]","","","","",""
"","","","","","survey-text","80","2.0.0","2788956","lp9kxrl1qr","2026-02-22","2556","null","699b84f908a988e06a10b0d3","Pilot_1","4","4","8","0.40","8","0.40","10","5","15","0","","99929","","{""funnel1"":""Interaction of individuals in the internet"",""funnel2"":""social interaction and outcomes"",""funnel3"":""none""}","","","","","",""
