"success","timeout","failed_images","failed_audio","failed_video","trial_type","trial_index","plugin_version","time_elapsed","subject_id","experiment_date","prolific_id_last4","study_id","session_id","version","condition","schedule","sp1Points","sp1Dollars","sp2Points","sp2Dollars","SP1_ball_received_T","SP1_ball_received_SP2","SP2_ball_received_T","burn_amount","task","rt","stimulus","response","question_order","correct","value","from","to","slider_start"
"true","false","[]","[]","[]","preload","0","2.0.0","196","lt8nymt24b","2026-02-22","b5bd","null","699b84e32f82928884aa790b","Pilot_1","2","2","4","0.20","12","0.60","4","","12","0","","","","","","","","","",""
"","","","","","html-button-response","1","2.0.0","4341","lt8nymt24b","2026-02-22","b5bd","null","699b84e32f82928884aa790b","Pilot_1","2","2","4","0.20","12","0.60","4","","12","0","consent","4144","
    <p style = ""text-align: start; width: 900px""> You are being invited to participate in a research study titled: The Influence of Social Interactions on Decision Making.<br><br>
        This study is being done by Michael McCullough, PhD (Principal Investigator) from UC San Diego. You were selected to participate in this study because you are a representative member of the society the investigators wish to study. 
        The purpose of this research study is to explore how nonverbal social interactions affect the way people talk to themselves. Your participation in this research should last no longer than 30 minutes. If you agree to take part in this study, you will be asked to complete several surveys that ask about your feelings, beliefs, judgments, and personal background.
        Your participation in this study is completely voluntary and you can withdraw at any time. Choosing not to participate or withdrawing will result in no penalty or loss of benefits to which you are entitled. Research sometimes requires that information regarding its purpose not be shared with the research participants because its knowledge could impact the results of the research. 
        Note that none of the aspects of the research being withheld are reasonably expected to affect your willingness to take part. While the tasks you will be asked to perform for this research have been explained, the full intent of the research will not be provided until the completion of the study. At that time, you will have the opportunity to ask questions, including about the purpose of the study and the procedures used, and withdraw your data if you so choose.
        If you have questions about this project or if you have a research-related problem, you may contact the researcher(s), Michael McCullough, Ph.D., Department of Psychology, University of California, San Diego, 9500 Gilman Drive, La Jolla, CA 92093-0109 and by email at memccullough@ucsd.edu. If you have any questions concerning your rights as a research subject, you may contact the UC San Diego Office of IRB Administration at irb@ucsd.edu or 858-246-4777.
        By participating in this research, you are indicating that you are at least 18 years old, have read this consent form, and agree to participate in this research study. Please keep this consent form for your records.</p>
        <p>Do you consent?</p>","0","","","","","",""
"","","","","","html-button-response","2","2.0.0","5378","lt8nymt24b","2026-02-22","b5bd","null","699b84e32f82928884aa790b","Pilot_1","2","2","4","0.20","12","0.60","4","","12","0","study_description","1036","<h2>Study Description</h2>
                 <p style=""width: 900px; text-align: start"">Thank you for agreeing to participate in this study! This study seeks to understand how social interactions influence our decision-making processes.<br><br>
                 In this study, you will play a virtual ball-tossing game with two other participants. The game is designed to simulate social interactions and observe how they affect how you make decisions towards other people.<br><br>
                 The instructions for the game will be provided in the next section. To ensure that everyone understands the rules, there will be a short quiz. If you get any answers wrong, don't worry—you will have the opportunity to review the instructions and retake the quiz until you get all the answers correct.<br><br>
                 Please pay close attention to the game and try to engage with the other participants as naturally as possible.</p>","0","","","","","",""
"","","","","","html-button-response","3","2.0.0","49434","lt8nymt24b","2026-02-22","b5bd","null","699b84e32f82928884aa790b","Pilot_1","2","2","4","0.20","12","0.60","4","","12","0","game_instructions","44055","<h2>Game Instructions</h2>
                <p style=""width: 1000px; text-align: start"">In Cyberball there are three players: Standard Player 1 (SP1), Standard Player 2 (SP2), and a Treasurer. <b>You are SP1</b>.
                    <br><br>
                    Your objective in Cyberball is to earn points by tossing a ball. At the end of the game, the points will be converted into a monetary bonus. Each point you earn is worth $0.05. To help you keep track of points, there will be a scoreboard displayed in the top-right corner of the screen during the game.<br>
                    <br>
                    The way the game works is that SP1 and SP2 individually earn points by tossing the ball to the Treasurer. Each time that SP1 or SP2 tossed the ball to the Treasurer, <u>the person who tossed the ball earns one point</u>. In other words, SP1 and SP2 earn points when they get the chance to toss the ball to the Treasurer.  
                    So, for example, if SP1 tosses the ball to the Treasurer, SP1 will earn one point and SP2 will not earn any points. Likewise, if SP2 tosses the ball to the Treasurer, SP2 will earn one point and SP1 will not earn anything. 
                    In this game, you are only allowed to pass the ball to the Treasurer. SP1 and SP2 are <b>not allowed</b> to pass the ball back and forth to each other.
                    <br><br>
                    <b>Keep in mind that SP1 and SP2 are not allowed to pass the ball to each other. You may only pass to the Treasurer.</b></p>","0","","","","","",""
"","","","","","survey-multi-choice","4","2.1.0","60964","lt8nymt24b","2026-02-22","b5bd","null","699b84e32f82928884aa790b","Pilot_1","2","2","4","0.20","12","0.60","4","","12","0","comprehension_quiz","11529","","{""role"":""Standard Player 1 (SP1)"",""points"":""By tossing the ball to the Treasurer"",""passing"":""No"",""passing_points"":""Not allowed to pass to SP2""}","[0,1,2,3]","true","","","",""
"","","","","","html-button-response","5","2.0.0","62521","lt8nymt24b","2026-02-22","b5bd","null","699b84e32f82928884aa790b","Pilot_1","2","2","4","0.20","12","0.60","4","","12","0","","1556","<p style=""color:green; font-weight:bold"">Great! You have answered all questions correctly. Let's move on to the game.</p><p>If you need a refresh on the instructions, please click the button <i>Open Cyberball Rules</i> on the top left corner of your screen.</p>","0","","","","","",""
"","","","","","call-function","6","null","62522","lt8nymt24b","2026-02-22","b5bd","null","699b84e32f82928884aa790b","Pilot_1","2","2","4","0.20","12","0.60","4","","12","0","","","","","","","","","",""
"","","","","","call-function","7","null","62524","lt8nymt24b","2026-02-22","b5bd","null","699b84e32f82928884aa790b","Pilot_1","2","2","4","0.20","12","0.60","4","","12","0","","","","","","","","","",""
"","","","","","html-keyboard-response","8","2.0.0","66155","lt8nymt24b","2026-02-22","b5bd","null","699b84e32f82928884aa790b","Pilot_1","2","2","4","0.20","12","0.60","4","","12","0","","","","","","","","Treasurer","SP2",""
"","","","","","html-keyboard-response","9","2.0.0","69655","lt8nymt24b","2026-02-22","b5bd","null","699b84e32f82928884aa790b","Pilot_1","2","2","4","0.20","12","0.60","4","","12","0","","","","","","","","SP2","Treasurer",""
"","","","","","html-keyboard-response","10","2.0.0","74243","lt8nymt24b","2026-02-22","b5bd","null","699b84e32f82928884aa790b","Pilot_1","2","2","4","0.20","12","0.60","4","","12","0","","","","","","","","Treasurer","SP1",""
"","","","","","html-keyboard-response","11","2.0.0","76973","lt8nymt24b","2026-02-22","b5bd","null","699b84e32f82928884aa790b","Pilot_1","2","2","4","0.20","12","0.60","4","","12","0","","","","","","","","SP1","Treasurer",""
"","","","","","html-keyboard-response","12","2.0.0","81246","lt8nymt24b","2026-02-22","b5bd","null","699b84e32f82928884aa790b","Pilot_1","2","2","4","0.20","12","0.60","4","","12","0","","","","","","","","Treasurer","SP2",""
"","","","","","html-keyboard-response","13","2.0.0","86371","lt8nymt24b","2026-02-22","b5bd","null","699b84e32f82928884aa790b","Pilot_1","2","2","4","0.20","12","0.60","4","","12","0","","","","","","","","SP2","Treasurer",""
"","","","","","html-keyboard-response","14","2.0.0","91549","lt8nymt24b","2026-02-22","b5bd","null","699b84e32f82928884aa790b","Pilot_1","2","2","4","0.20","12","0.60","4","","12","0","","","","","","","","Treasurer","SP2",""
"","","","","","html-keyboard-response","15","2.0.0","95604","lt8nymt24b","2026-02-22","b5bd","null","699b84e32f82928884aa790b","Pilot_1","2","2","4","0.20","12","0.60","4","","12","0","","","","","","","","SP2","Treasurer",""
"","","","","","html-keyboard-response","16","2.0.0","99781","lt8nymt24b","2026-02-22","b5bd","null","699b84e32f82928884aa790b","Pilot_1","2","2","4","0.20","12","0.60","4","","12","0","","","","","","","","Treasurer","SP1",""
"","","","","","html-keyboard-response","17","2.0.0","102295","lt8nymt24b","2026-02-22","b5bd","null","699b84e32f82928884aa790b","Pilot_1","2","2","4","0.20","12","0.60","4","","12","0","","","","","","","","SP1","Treasurer",""
"","","","","","html-keyboard-response","18","2.0.0","105604","lt8nymt24b","2026-02-22","b5bd","null","699b84e32f82928884aa790b","Pilot_1","2","2","4","0.20","12","0.60","4","","12","0","","","","","","","","Treasurer","SP2",""
"","","","","","html-keyboard-response","19","2.0.0","110233","lt8nymt24b","2026-02-22","b5bd","null","699b84e32f82928884aa790b","Pilot_1","2","2","4","0.20","12","0.60","4","","12","0","","","","","","","","SP2","Treasurer",""
"","","","","","html-keyboard-response","20","2.0.0","115220","lt8nymt24b","2026-02-22","b5bd","null","699b84e32f82928884aa790b","Pilot_1","2","2","4","0.20","12","0.60","4","","12","0","","","","","","","","Treasurer","SP2",""
"","","","","","html-keyboard-response","21","2.0.0","119771","lt8nymt24b","2026-02-22","b5bd","null","699b84e32f82928884aa790b","Pilot_1","2","2","4","0.20","12","0.60","4","","12","0","","","","","","","","SP2","Treasurer",""
"","","","","","html-keyboard-response","22","2.0.0","123369","lt8nymt24b","2026-02-22","b5bd","null","699b84e32f82928884aa790b","Pilot_1","2","2","4","0.20","12","0.60","4","","12","0","","","","","","","","Treasurer","SP1",""
"","","","","","html-keyboard-response","23","2.0.0","125862","lt8nymt24b","2026-02-22","b5bd","null","699b84e32f82928884aa790b","Pilot_1","2","2","4","0.20","12","0.60","4","","12","0","","","","","","","","SP1","Treasurer",""
"","","","","","html-keyboard-response","24","2.0.0","129377","lt8nymt24b","2026-02-22","b5bd","null","699b84e32f82928884aa790b","Pilot_1","2","2","4","0.20","12","0.60","4","","12","0","","","","","","","","Treasurer","SP2",""
"","","","","","html-keyboard-response","25","2.0.0","133333","lt8nymt24b","2026-02-22","b5bd","null","699b84e32f82928884aa790b","Pilot_1","2","2","4","0.20","12","0.60","4","","12","0","","","","","","","","SP2","Treasurer",""
"","","","","","html-keyboard-response","26","2.0.0","137093","lt8nymt24b","2026-02-22","b5bd","null","699b84e32f82928884aa790b","Pilot_1","2","2","4","0.20","12","0.60","4","","12","0","","","","","","","","Treasurer","SP2",""
"","","","","","html-keyboard-response","27","2.0.0","142247","lt8nymt24b","2026-02-22","b5bd","null","699b84e32f82928884aa790b","Pilot_1","2","2","4","0.20","12","0.60","4","","12","0","","","","","","","","SP2","Treasurer",""
"","","","","","html-keyboard-response","28","2.0.0","146304","lt8nymt24b","2026-02-22","b5bd","null","699b84e32f82928884aa790b","Pilot_1","2","2","4","0.20","12","0.60","4","","12","0","","","","","","","","Treasurer","SP1",""
"","","","","","html-keyboard-response","29","2.0.0","149054","lt8nymt24b","2026-02-22","b5bd","null","699b84e32f82928884aa790b","Pilot_1","2","2","4","0.20","12","0.60","4","","12","0","","","","","","","","SP1","Treasurer",""
"","","","","","html-keyboard-response","30","2.0.0","152911","lt8nymt24b","2026-02-22","b5bd","null","699b84e32f82928884aa790b","Pilot_1","2","2","4","0.20","12","0.60","4","","12","0","","","","","","","","Treasurer","SP2",""
"","","","","","html-keyboard-response","31","2.0.0","156238","lt8nymt24b","2026-02-22","b5bd","null","699b84e32f82928884aa790b","Pilot_1","2","2","4","0.20","12","0.60","4","","12","0","","","","","","","","SP2","Treasurer",""
"","","","","","html-keyboard-response","32","2.0.0","159477","lt8nymt24b","2026-02-22","b5bd","null","699b84e32f82928884aa790b","Pilot_1","2","2","4","0.20","12","0.60","4","","12","0","","","","","","","","Treasurer","SP2",""
"","","","","","html-keyboard-response","33","2.0.0","162889","lt8nymt24b","2026-02-22","b5bd","null","699b84e32f82928884aa790b","Pilot_1","2","2","4","0.20","12","0.60","4","","12","0","","","","","","","","SP2","Treasurer",""
"","","","","","html-keyboard-response","34","2.0.0","166733","lt8nymt24b","2026-02-22","b5bd","null","699b84e32f82928884aa790b","Pilot_1","2","2","4","0.20","12","0.60","4","","12","0","","","","","","","","Treasurer","SP2",""
"","","","","","html-keyboard-response","35","2.0.0","170817","lt8nymt24b","2026-02-22","b5bd","null","699b84e32f82928884aa790b","Pilot_1","2","2","4","0.20","12","0.60","4","","12","0","","","","","","","","SP2","Treasurer",""
"","","","","","html-keyboard-response","36","2.0.0","174757","lt8nymt24b","2026-02-22","b5bd","null","699b84e32f82928884aa790b","Pilot_1","2","2","4","0.20","12","0.60","4","","12","0","","","","","","","","Treasurer","SP2",""
"","","","","","html-keyboard-response","37","2.0.0","179304","lt8nymt24b","2026-02-22","b5bd","null","699b84e32f82928884aa790b","Pilot_1","2","2","4","0.20","12","0.60","4","","12","0","","","","","","","","SP2","Treasurer",""
"","","","","","html-keyboard-response","38","2.0.0","183055","lt8nymt24b","2026-02-22","b5bd","null","699b84e32f82928884aa790b","Pilot_1","2","2","4","0.20","12","0.60","4","","12","0","","","","","","","","Treasurer","SP2",""
"","","","","","html-keyboard-response","39","2.0.0","188090","lt8nymt24b","2026-02-22","b5bd","null","699b84e32f82928884aa790b","Pilot_1","2","2","4","0.20","12","0.60","4","","12","0","","","","","","","","SP2","Treasurer",""
"","","","","","html-button-response","40","2.0.0","192121","lt8nymt24b","2026-02-22","b5bd","null","699b84e32f82928884aa790b","Pilot_1","2","2","4","0.20","12","0.60","4","","12","0","end_game","4030","<h2>Game Over</h2>
              <p style=""width: 800px; text-align: start;"">The game has ended! You earned <b>4 points</b>, which is equivalent to <b>$0.20</b>.<br><br>
                Your fellow player, Standard Player 2, earned <b>12 points</b>, which is equivalent to <b>$0.60</b>.<br><br>
                Please click the button below to continue to the next part of the study.</p>","0","","","","","",""
"","","","","","survey-text","41","2.0.0","199770","lt8nymt24b","2026-02-22","b5bd","null","699b84e32f82928884aa790b","Pilot_1","2","2","4","0.20","12","0.60","4","","12","0","comprehension_check","7647","","{""SP1_ball_received_T"":""4"",""SP2_ball_received_T"":""12""}","","","","","",""
"","","","","","html-slider-response","42","2.0.0","218384","lt8nymt24b","2026-02-22","b5bd","null","699b84e32f82928884aa790b","Pilot_1","2","2","4","0.20","12","0.60","4","","12","0","","18612","
  <p style=""width: 1000px; padding: 10px"">
    You may choose to reduce SP2’s earnings by giving up some of your own earnings. This is a <u>one-time, one-sided decision</u>. This means only you make this decision; SP2 will not make a corresponding decision.<br><br>

    For every <b>$0.01</b> you give up, SP2’s earnings are reduced by <b>$0.05</b>.<br>
    For example, giving up <b>$0.03</b> reduces SP2’s earnings by <b>$0.15</b>. Choosing $0 means no change to either participant's earnings.<br>
    Earnings for either participant cannot go below <b>$0</b>.<br><br>

    You may move the slider below to see how different choices would affect both participants’ earnings. Moving the slider does not finalize your decision. Your decision is only locked in once you click 'Continue' and move on to the next task.<br><br>

    There is no correct or expected choice. Please use the slider to indicate how much of your own earnings you would like to give up in order to reduce SP2's earnings.
    </p>

  <div style=""
    display:flex;
    justify-content:center;
    gap:100px;
    margin:30px 0;
    align-items:flex-end;
  "">

    <div style=""text-align:center;"">
      <div id=""sp1-baseline"" style=""font-weight: bold; margin-bottom:6px;"">$0.00</div>
      <div id=""sp1-coins""></div>
      <div style=""margin-top:6px;"">You (SP1)</div>
    </div>

    <div style=""text-align:center;"">
      <div id=""sp2-baseline"" style=""font-weight: bold; margin-bottom:6px;"">$0.00</div>
      <div id=""sp2-coins""></div>
      <div style=""margin-top:6px;"">SP2</div>
    </div>

  </div>
  ","0","","","","","","0"
"","","","","","call-function","43","null","218384","lt8nymt24b","2026-02-22","b5bd","null","699b84e32f82928884aa790b","Pilot_1","2","2","4","0.20","12","0.60","4","","12","0","","","","","","","","","",""
"","","","","","survey-text","44","2.0.0","1148541","lt8nymt24b","2026-02-22","b5bd","null","699b84e32f82928884aa790b","Pilot_1","2","2","4","0.20","12","0.60","4","","12","0","","930153","","{""dv1_OE_game_satisfaction"":""I WAS A BIT DISAPOINTED BECAUSE PLAYER 2 WAS TOSSED THE BALL ALOT MORE THAN ME. THE TREASURER SEEMED BIASED AGAINST ME FOR A REASON I COULD NOT GUESS. THEY TOSSED THE BALL TO PLAYER 2 12 TIMES TOTAL AND ME ONLY 4, SO PLAYER 2 GARENTEED TO WIN THE GAME"",""dv1_oe_playtime_satisfaction"":""IF THE GAME HAD BEEN MORE EVEN I WOULD HAVE BEEN MORE SATISFIDE, AS IT STANDS I WASNT PARTICULARLY SATISFIDE BECAUSE I DIDNT GET TO PLAY THAT MUCH. THE BALL ONLY CAME TO ME A TOTAL OF 4 TIMES, WHICH IS UNFAIR. PLAYER 2 GOT TO PLAY THREE TIMES MORE THAN ME."",""dv1_oe_earnings_satisfaction"":""GIVEN THAT I DID NOT HAVE TO DO MUCH TO EARN MONEY, I WAS QUITE HAPPY. ALOUGH I DO FEEL THE \""GAME\"" COULD HAVE BEEN MORE FAIR. ALL I HAD TO DO WAS CATCH AND THROW THE BALL BACK TO THE TRESURER, WHICH IN TEARMS OF ACTIVITY IS QUITE LOW."",""dv1_oe_treasurer_behavior"":""I THINK THERY SHOULD HAVE BEHAVED MORE FAIRLY, AND TOSSED THE BALL TO PLAYER 1 AND PLAYER 2 EQUALLY. I DISLIKED THAT I WAS BEING EXCLUDED AND IF I WERE THE TREASURER I WOULD HAVE TOSSED THE BALL TO EACH OF THE TWO PLAYERS EQUALLY SO THAT EVERYONE WOULD GET THE MOST BENEFIT FROM THE GAME."",""dv1_oe_sp2_behavior"":""THEY MET MY EXPECTATIONS, THEY PLAYED THE GAME HOW IT SHOULD BE PLAYED, NOT TOSSING THE BALL TO ME AND INSTEAD CORRECTLY CHOOSING TO TOSS IT BACK TOTHE TRESURER SO THAT IT COULD BE THROWN TO EITHER ME OR THEM AGAIN. PERHAPS IF THEY NOTICED THE GAME WAS UNFAIR THEY COULD HAVE SABOTAGED IT AND THROWN THE BALL AT ME ONCE."",""dv1_oe_message_to_treasurer"":""I WOULD ASK WHY THEY SEEMED TO FAVOUR PLAYER 2, AND WHY THEY ACTIVLY CHOOSE TO THROW THE BALL AT ME LESS. IT WAS UNFAIR AND I FEEL LIKE THEY COMMITED AN INJUSTICE AGAINST ME, ACTIVLY CHOOSING TO MAKE IT SO I WOULD EARN LESS OVER THE COURSE OF THE GAME"",""dv1_oe_message_to_sp2"":""I WOULD SAY I WAS ANNOYED THAT THEY GOT TOSSED THE BALL MORE, BUT IT ISNT REALLY THIER FAULT, AND THE TREASURER WAS BEING UNFAIR. I MIGHT HAVE ASKED IF THEY NOTICED THE TREASURER BEING UNFAIR AND IF THEY CONSIDERED INTERVIENING TO EXPRESS THAT. IN THIER SITUATION I WOULD HAVE POINTED OUT THAT THE GAME WAS UNFAIR.""}","","","","","",""
"","","","","","survey-likert","45","2.0.0","1194707","lt8nymt24b","2026-02-22","b5bd","null","699b84e32f82928884aa790b","Pilot_1","2","2","4","0.20","12","0.60","4","","12","0","","46165","","{""dv2_praising"":0,""dv2_insulting"":0,""dv2_avoiding"":0,""dv2_become_friends"":3,""dv2_unkind_things"":0,""dv2_helping"":5,""dv2_complementing"":3,""dv2_favor"":5,""dv2_invite_fun"":3,""dv2_ignore"":1}","[0,1,2,3,4,5,6,7,8,9]","","","","",""
"","","","","","survey-likert","46","2.0.0","1234883","lt8nymt24b","2026-02-22","b5bd","null","699b84e32f82928884aa790b","Pilot_1","2","2","4","0.20","12","0.60","4","","12","0","","40174","","{""dv3_state_envy"":6,""dv3_state_jealous"":6,""dv3_state_bitter"":4,""dv3_state_resentful"":1,""dv3_state_happy"":4,""dv3_state_compassionate"":4,""dv3_state_surprised"":5,""dv3_state_grateful"":0,""dv3_state_thankful"":0,""dv3_state_sad"":4,""dv3_state_upset"":5,""dv3_state_disappointed"":5,""dv3_state_annoyed"":4,""dv3_state_angry"":5,""dv3_state_shame"":1,""dv3_state_contempt"":4,""dv3_state_joy"":0,""dv3_state_irritated"":5}","[0,1,2,3,4,5,6,7,8,9,10,11,12,13,14,15,16,17]","","","","",""
"","","","","","survey-likert","47","2.0.0","1274042","lt8nymt24b","2026-02-22","b5bd","null","699b84e32f82928884aa790b","Pilot_1","2","2","4","0.20","12","0.60","4","","12","0","","39158","","{""dv3a_wish_received_more"":6,""dv3a_game_unfair"":6,""dv3a_performed_well"":6,""dv3a_felt_malicious_envy"":0,""dv3a_game_different"":6,""dv3a_understood_rules"":6,""dv3a_felt_ignored"":5,""dv3a_attention_check_1"":1,""dv3a_felt_bad_others"":0,""dv3a_results_happy"":1,""dv3a_felt_excluded"":5}","[3,0,9,7,2,8,4,5,10,1,6]","","","","",""
"","","","","","survey-likert","48","2.0.0","1298546","lt8nymt24b","2026-02-22","b5bd","null","699b84e32f82928884aa790b","Pilot_1","2","2","4","0.20","12","0.60","4","","12","0","","24503","","{""dv3b_sp2_unfiar"":0,""dv3b_sp2_closeness"":0,""dv3b_sp2_competition"":2,""dv3b_sp2_take_winnings"":3,""dv3b_sp2_betrayal"":1,""dv3b_sp2_rival"":1,""dv3b_sp2_shared_goals"":5,""dv3b_sp2_deservingness"":5}","[2,0,5,3,1,7,6,4]","","","","",""
"","","","","","survey-likert","49","2.0.0","1316530","lt8nymt24b","2026-02-22","b5bd","null","699b84e32f82928884aa790b","Pilot_1","2","2","4","0.20","12","0.60","4","","12","0","","17983","","{""dv3b_treasurer_rival"":6,""dv3c_treasurer_closeness"":0,""dv3c_treasurer_betrayal"":6,""dv3b_treasurer_competition"":3,""dv3c_treasurer_unfair"":6,""dv3b_treasurer_shared_goals"":1}","[5,0,1,3,2,4]","","","","",""
"","","","","","survey-likert","50","2.0.0","1344572","lt8nymt24b","2026-02-22","b5bd","null","699b84e32f82928884aa790b","Pilot_1","2","2","4","0.20","12","0.60","4","","12","0","","28041","","{""dv4_rain_on_parade"":0,""dv4_trade_places_rev"":6,""dv4_angry_others_succeed"":4,""dv4_happy_friends_succeed_rev"":6,""dv4_content_with_self_rev"":6,""dv4_happy_others_succeed_rev"":6,""dv4_pain_friends_succeed"":4,""dv4_prefer_stranger_win"":0}","[0,1,2,3,4,5,6,7]","","","","",""
"","","","","","survey-multi-choice","51","2.1.0","1371823","lt8nymt24b","2026-02-22","b5bd","null","699b84e32f82928884aa790b","Pilot_1","2","2","4","0.20","12","0.60","4","","12","0","","27250","","{""demo_attention_check_2"":""1000+"",""demo_sex"":""Female"",""demo_gender"":""Woman"",""demo_education"":""Some college, no degree"",""demo_social_class"":""3 = middle"",""demo_marital_status"":""Never married""}","[0,1,2,3,4,5]","","","","",""
"","","","","","survey-text","52","2.0.0","1374683","lt8nymt24b","2026-02-22","b5bd","null","699b84e32f82928884aa790b","Pilot_1","2","2","4","0.20","12","0.60","4","","12","0","","2859","","{""demo_age"":""22""}","","","","","",""
"","","","","","survey-multi-select","53","null","1376759","lt8nymt24b","2026-02-22","b5bd","null","699b84e32f82928884aa790b","Pilot_1","2","2","4","0.20","12","0.60","4","","12","0","","2074","","{""demo_race"":[""White""]}","[0]","","","","",""
"","","","","","survey-likert","54","2.0.0","1379985","lt8nymt24b","2026-02-22","b5bd","null","699b84e32f82928884aa790b","Pilot_1","2","2","4","0.20","12","0.60","4","","12","0","","3225","","{""attention_check_3"":3}","[0]","","","","",""
"","","","","","survey-text","55","2.0.0","1445804","lt8nymt24b","2026-02-22","b5bd","null","699b84e32f82928884aa790b","Pilot_1","2","2","4","0.20","12","0.60","4","","12","0","","65818","","{""funnel1"":""HOW WE RESPOND TO DIFFERENT PEOPLE IN A SITUATION WE PERCIEVE AS UNFAIR"",""funnel2"":""WETHER OR NOT WE BLAMED THE TREASURER OR SP2 FOR THE OUTCOME OF THE GAME"",""funnel3"":""""}","","","","","",""
