"success","timeout","failed_images","failed_audio","failed_video","trial_type","trial_index","plugin_version","time_elapsed","subject_id","experiment_date","prolific_id_last4","study_id","session_id","version","condition","schedule","sp1Points","sp1Dollars","sp2Points","sp2Dollars","SP1_ball_received_T","SP1_ball_received_SP2","SP2_ball_received_T","burn_amount","task","rt","stimulus","response","question_order","correct","value","from","to","slider_start"
"true","false","[]","[]","[]","preload","0","2.0.0","231","pcmwphmpa0","2026-02-13","b852","null","698f946b81c261e86d563e3f","Pilot_1","1","1","8","0.40","8","0.40","8","","8","0","","","","","","","","","",""
"","","","","","html-button-response","1","2.0.0","28529","pcmwphmpa0","2026-02-13","b852","null","698f946b81c261e86d563e3f","Pilot_1","1","1","8","0.40","8","0.40","8","","8","0","consent","28296","
    <p style = ""text-align: start; width: 900px""> You are being invited to participate in a research study titled: The Influence of Social Interactions on Decision Making.<br><br>
        This study is being done by Michael McCullough, PhD (Principal Investigator) from UC San Diego. You were selected to participate in this study because you are a representative member of the society the investigators wish to study. 
        The purpose of this research study is to explore how nonverbal social interactions affect the way people talk to themselves. Your participation in this research should last no longer than 30 minutes. If you agree to take part in this study, you will be asked to complete several surveys that ask about your feelings, beliefs, judgments, and personal background.
        Your participation in this study is completely voluntary and you can withdraw at any time. Choosing not to participate or withdrawing will result in no penalty or loss of benefits to which you are entitled. Research sometimes requires that information regarding its purpose not be shared with the research participants because its knowledge could impact the results of the research. 
        Note that none of the aspects of the research being withheld are reasonably expected to affect your willingness to take part. While the tasks you will be asked to perform for this research have been explained, the full intent of the research will not be provided until the completion of the study. At that time, you will have the opportunity to ask questions, including about the purpose of the study and the procedures used, and withdraw your data if you so choose.
        If you have questions about this project or if you have a research-related problem, you may contact the researcher(s), Michael McCullough, Ph.D., Department of Psychology, University of California, San Diego, 9500 Gilman Drive, La Jolla, CA 92093-0109 and by email at memccullough@ucsd.edu. If you have any questions concerning your rights as a research subject, you may contact the UC San Diego Office of IRB Administration at irb@ucsd.edu or 858-246-4777.
        By participating in this research, you are indicating that you are at least 18 years old, have read this consent form, and agree to participate in this research study. Please keep this consent form for your records.</p>
        <p>Do you consent?</p>","0","","","","","",""
"","","","","","html-button-response","2","2.0.0","40057","pcmwphmpa0","2026-02-13","b852","null","698f946b81c261e86d563e3f","Pilot_1","1","1","8","0.40","8","0.40","8","","8","0","study_description","11526","<h2>Study Description</h2>
                 <p style=""width: 900px; text-align: start"">Thank you for agreeing to participate in this study! This study seeks to understand how social interactions influence our decision-making processes.<br><br>
                 In this study, you will play a virtual ball-tossing game with two other participants. The game is designed to simulate social interactions and observe how they affect how you make decisions towards other people.<br><br>
                 The instructions for the game will be provided in the next section. To ensure that everyone understands the rules, there will be a short quiz. If you get any answers wrong, don't worry—you will have the opportunity to review the instructions and retake the quiz until you get all the answers correct.<br><br>
                 Please pay close attention to the game and try to engage with the other participants as naturally as possible.</p>","0","","","","","",""
"","","","","","html-button-response","3","2.0.0","70819","pcmwphmpa0","2026-02-13","b852","null","698f946b81c261e86d563e3f","Pilot_1","1","1","8","0.40","8","0.40","8","","8","0","game_instructions","30760","<h2>Game Instructions</h2>
                <p style=""width: 1000px; text-align: start"">In Cyberball there are three players: Standard Player 1 (SP1), Standard Player 2 (SP2), and a Treasurer. <b>You are SP1</b>.
                <br><br>
                Your objective in Cyberball is to earn points by tossing a ball. At the end of the game, the points will be converted into a monetary bonus. Each point you earn is worth $0.05. To help you keep track of points, there will be a scoreboard displayed in the top-right corner of the screen during the game.
                <br><br>
                The way the game works is that SP1 and SP2 individually earn points by tossing the ball to the Treasurer. Each time that SP1 or SP2 tossed the ball to the Treasurer, <u>the person who tossed the ball earns one point</u>. In other words, SP1 and SP2 earn points when they get the chance to toss the ball to the Treasurer.
                So, for example, if SP1 tosses the ball to the Treasurer, SP1 will earn one point and SP2 will not earn any points. Likewise, if SP2 tosses the ball to the Treasurer, SP2 will earn one point and SP1 will not earn anything. 
                <br><br>
                Keep in mind that SP1 and SP2 cannot earn points by tossing the ball to each other. SP1 and SP2 can only earn points by tossing the ball to the Treasurer.</p>","0","","","","","",""
"","","","","","survey-multi-choice","4","2.1.0","83807","pcmwphmpa0","2026-02-13","b852","null","698f946b81c261e86d563e3f","Pilot_1","1","1","8","0.40","8","0.40","8","","8","0","comprehension_quiz","12985","","{""role"":""Standard Player 1 (SP1)"",""points"":""By tossing the ball to the Treasurer"",""passing"":""Yes"",""passing_points"":""0 points""}","[0,1,2,3]","true","","","",""
"","","","","","html-button-response","5","2.0.0","90012","pcmwphmpa0","2026-02-13","b852","null","698f946b81c261e86d563e3f","Pilot_1","1","1","8","0.40","8","0.40","8","","8","0","","6203","<p style=""color:green; font-weight:bold"">Great! You have answered all questions correctly. Let's move on to the game.</p><p>If you need a refresh on the instructions, please click the button <i>Open Cyberball Rules</i> on the top left corner of your screen.</p>","0","","","","","",""
"","","","","","call-function","6","null","90015","pcmwphmpa0","2026-02-13","b852","null","698f946b81c261e86d563e3f","Pilot_1","1","1","8","0.40","8","0.40","8","","8","0","","","","","","","","","",""
"","","","","","call-function","7","null","90017","pcmwphmpa0","2026-02-13","b852","null","698f946b81c261e86d563e3f","Pilot_1","1","1","8","0.40","8","0.40","8","","8","0","","","","","","","","","",""
"","","","","","html-keyboard-response","8","2.0.0","93862","pcmwphmpa0","2026-02-13","b852","null","698f946b81c261e86d563e3f","Pilot_1","1","1","8","0.40","8","0.40","8","","8","0","","","","","","","","Treasurer","SP2",""
"","","","","","html-keyboard-response","9","2.0.0","98145","pcmwphmpa0","2026-02-13","b852","null","698f946b81c261e86d563e3f","Pilot_1","1","1","8","0.40","8","0.40","8","","8","0","","","","","","","","SP2","Treasurer",""
"","","","","","html-keyboard-response","10","2.0.0","103245","pcmwphmpa0","2026-02-13","b852","null","698f946b81c261e86d563e3f","Pilot_1","1","1","8","0.40","8","0.40","8","","8","0","","","","","","","","Treasurer","SP1",""
"","","","","","html-keyboard-response","11","2.0.0","106078","pcmwphmpa0","2026-02-13","b852","null","698f946b81c261e86d563e3f","Pilot_1","1","1","8","0.40","8","0.40","8","","8","0","","","","","","","","SP1","Treasurer",""
"","","","","","html-keyboard-response","12","2.0.0","111295","pcmwphmpa0","2026-02-13","b852","null","698f946b81c261e86d563e3f","Pilot_1","1","1","8","0.40","8","0.40","8","","8","0","","","","","","","","Treasurer","SP2",""
"","","","","","html-keyboard-response","13","2.0.0","115339","pcmwphmpa0","2026-02-13","b852","null","698f946b81c261e86d563e3f","Pilot_1","1","1","8","0.40","8","0.40","8","","8","0","","","","","","","","SP2","Treasurer",""
"","","","","","html-keyboard-response","14","2.0.0","120096","pcmwphmpa0","2026-02-13","b852","null","698f946b81c261e86d563e3f","Pilot_1","1","1","8","0.40","8","0.40","8","","8","0","","","","","","","","Treasurer","SP1",""
"","","","","","html-keyboard-response","15","2.0.0","123212","pcmwphmpa0","2026-02-13","b852","null","698f946b81c261e86d563e3f","Pilot_1","1","1","8","0.40","8","0.40","8","","8","0","","","","","","","","SP1","Treasurer",""
"","","","","","html-keyboard-response","16","2.0.0","126528","pcmwphmpa0","2026-02-13","b852","null","698f946b81c261e86d563e3f","Pilot_1","1","1","8","0.40","8","0.40","8","","8","0","","","","","","","","Treasurer","SP1",""
"","","","","","html-keyboard-response","17","2.0.0","129246","pcmwphmpa0","2026-02-13","b852","null","698f946b81c261e86d563e3f","Pilot_1","1","1","8","0.40","8","0.40","8","","8","0","","","","","","","","SP1","Treasurer",""
"","","","","","html-keyboard-response","18","2.0.0","134262","pcmwphmpa0","2026-02-13","b852","null","698f946b81c261e86d563e3f","Pilot_1","1","1","8","0.40","8","0.40","8","","8","0","","","","","","","","Treasurer","SP2",""
"","","","","","html-keyboard-response","19","2.0.0","138203","pcmwphmpa0","2026-02-13","b852","null","698f946b81c261e86d563e3f","Pilot_1","1","1","8","0.40","8","0.40","8","","8","0","","","","","","","","SP2","Treasurer",""
"","","","","","html-keyboard-response","20","2.0.0","142445","pcmwphmpa0","2026-02-13","b852","null","698f946b81c261e86d563e3f","Pilot_1","1","1","8","0.40","8","0.40","8","","8","0","","","","","","","","Treasurer","SP1",""
"","","","","","html-keyboard-response","21","2.0.0","145112","pcmwphmpa0","2026-02-13","b852","null","698f946b81c261e86d563e3f","Pilot_1","1","1","8","0.40","8","0.40","8","","8","0","","","","","","","","SP1","Treasurer",""
"","","","","","html-keyboard-response","22","2.0.0","149979","pcmwphmpa0","2026-02-13","b852","null","698f946b81c261e86d563e3f","Pilot_1","1","1","8","0.40","8","0.40","8","","8","0","","","","","","","","Treasurer","SP2",""
"","","","","","html-keyboard-response","23","2.0.0","153534","pcmwphmpa0","2026-02-13","b852","null","698f946b81c261e86d563e3f","Pilot_1","1","1","8","0.40","8","0.40","8","","8","0","","","","","","","","SP2","Treasurer",""
"","","","","","html-keyboard-response","24","2.0.0","158612","pcmwphmpa0","2026-02-13","b852","null","698f946b81c261e86d563e3f","Pilot_1","1","1","8","0.40","8","0.40","8","","8","0","","","","","","","","Treasurer","SP2",""
"","","","","","html-keyboard-response","25","2.0.0","163474","pcmwphmpa0","2026-02-13","b852","null","698f946b81c261e86d563e3f","Pilot_1","1","1","8","0.40","8","0.40","8","","8","0","","","","","","","","SP2","Treasurer",""
"","","","","","html-keyboard-response","26","2.0.0","168179","pcmwphmpa0","2026-02-13","b852","null","698f946b81c261e86d563e3f","Pilot_1","1","1","8","0.40","8","0.40","8","","8","0","","","","","","","","Treasurer","SP1",""
"","","","","","html-keyboard-response","27","2.0.0","170961","pcmwphmpa0","2026-02-13","b852","null","698f946b81c261e86d563e3f","Pilot_1","1","1","8","0.40","8","0.40","8","","8","0","","","","","","","","SP1","Treasurer",""
"","","","","","html-keyboard-response","28","2.0.0","174746","pcmwphmpa0","2026-02-13","b852","null","698f946b81c261e86d563e3f","Pilot_1","1","1","8","0.40","8","0.40","8","","8","0","","","","","","","","Treasurer","SP2",""
"","","","","","html-keyboard-response","29","2.0.0","179912","pcmwphmpa0","2026-02-13","b852","null","698f946b81c261e86d563e3f","Pilot_1","1","1","8","0.40","8","0.40","8","","8","0","","","","","","","","SP2","Treasurer",""
"","","","","","html-keyboard-response","30","2.0.0","183277","pcmwphmpa0","2026-02-13","b852","null","698f946b81c261e86d563e3f","Pilot_1","1","1","8","0.40","8","0.40","8","","8","0","","","","","","","","Treasurer","SP1",""
"","","","","","html-keyboard-response","31","2.0.0","186142","pcmwphmpa0","2026-02-13","b852","null","698f946b81c261e86d563e3f","Pilot_1","1","1","8","0.40","8","0.40","8","","8","0","","","","","","","","SP1","Treasurer",""
"","","","","","html-keyboard-response","32","2.0.0","190429","pcmwphmpa0","2026-02-13","b852","null","698f946b81c261e86d563e3f","Pilot_1","1","1","8","0.40","8","0.40","8","","8","0","","","","","","","","Treasurer","SP1",""
"","","","","","html-keyboard-response","33","2.0.0","193211","pcmwphmpa0","2026-02-13","b852","null","698f946b81c261e86d563e3f","Pilot_1","1","1","8","0.40","8","0.40","8","","8","0","","","","","","","","SP1","Treasurer",""
"","","","","","html-keyboard-response","34","2.0.0","198043","pcmwphmpa0","2026-02-13","b852","null","698f946b81c261e86d563e3f","Pilot_1","1","1","8","0.40","8","0.40","8","","8","0","","","","","","","","Treasurer","SP2",""
"","","","","","html-keyboard-response","35","2.0.0","202615","pcmwphmpa0","2026-02-13","b852","null","698f946b81c261e86d563e3f","Pilot_1","1","1","8","0.40","8","0.40","8","","8","0","","","","","","","","SP2","Treasurer",""
"","","","","","html-keyboard-response","36","2.0.0","206805","pcmwphmpa0","2026-02-13","b852","null","698f946b81c261e86d563e3f","Pilot_1","1","1","8","0.40","8","0.40","8","","8","0","","","","","","","","Treasurer","SP1",""
"","","","","","html-keyboard-response","37","2.0.0","209494","pcmwphmpa0","2026-02-13","b852","null","698f946b81c261e86d563e3f","Pilot_1","1","1","8","0.40","8","0.40","8","","8","0","","","","","","","","SP1","Treasurer",""
"","","","","","html-keyboard-response","38","2.0.0","212833","pcmwphmpa0","2026-02-13","b852","null","698f946b81c261e86d563e3f","Pilot_1","1","1","8","0.40","8","0.40","8","","8","0","","","","","","","","Treasurer","SP2",""
"","","","","","html-keyboard-response","39","2.0.0","216129","pcmwphmpa0","2026-02-13","b852","null","698f946b81c261e86d563e3f","Pilot_1","1","1","8","0.40","8","0.40","8","","8","0","","","","","","","","SP2","Treasurer",""
"","","","","","html-button-response","40","2.0.0","223230","pcmwphmpa0","2026-02-13","b852","null","698f946b81c261e86d563e3f","Pilot_1","1","1","8","0.40","8","0.40","8","","8","0","end_game","7099","<h2>Game Over</h2>
              <p style=""width: 800px; text-align: start;"">The game has ended! You earned <b>8 points</b>, which is equivalent to <b>$0.40</b>.<br><br>
                Your fellow player, Standard Player 2, earned <b>8 points</b>, which is equivalent to <b>$0.40</b>.<br><br>
                Please click the button below to continue to the next part of the study.</p>","0","","","","","",""
"","","","","","survey-text","41","2.0.0","236905","pcmwphmpa0","2026-02-13","b852","null","698f946b81c261e86d563e3f","Pilot_1","1","1","8","0.40","8","0.40","8","","8","0","comprehension_check","13672","","{""SP1_ball_received_T"":""8"",""SP2_ball_received_T"":""8""}","","","","","",""
"","","","","","html-slider-response","42","2.0.0","259399","pcmwphmpa0","2026-02-13","b852","null","698f946b81c261e86d563e3f","Pilot_1","1","1","8","0.40","8","0.40","8","","8","0","","22490","
  <p style=""width: 1000px; padding: 10px"">
    You may choose to reduce SP2’s earnings by giving up some of your own earnings. This is a <u>one-time, one-sided decision</u>. This means only you make this decision; SP2 will not make a corresponding decision.<br><br>

    For every <b>$0.01</b> you give up, SP2’s earnings are reduced by <b>$0.05</b>.<br>
    For example, giving up <b>$0.03</b> reduces SP2’s earnings by <b>$0.15</b>. Choosing $0 means no change to either participant's earnings.<br>
    Earnings for either participant cannot go below <b>$0</b>.<br><br>

    You may move the slider below to see how different choices would affect both participants’ earnings. Moving the slider does not finalize your decision. Your decision is only locked in once you click 'Continue' and move on to the next task.<br><br>

    There is no correct or expected choice. Please use the slider to indicate how much of your own earnings you would like to give up in order to reduce SP2's earnings.
    </p>

  <div style=""
    display:flex;
    justify-content:center;
    gap:100px;
    margin:30px 0;
    align-items:flex-end;
  "">

    <div style=""text-align:center;"">
      <div id=""sp1-baseline"" style=""font-weight: bold; margin-bottom:6px;"">$0.00</div>
      <div id=""sp1-coins""></div>
      <div style=""margin-top:6px;"">You (SP1)</div>
    </div>

    <div style=""text-align:center;"">
      <div id=""sp2-baseline"" style=""font-weight: bold; margin-bottom:6px;"">$0.00</div>
      <div id=""sp2-coins""></div>
      <div style=""margin-top:6px;"">SP2</div>
    </div>

  </div>
  ","0","","","","","","0"
"","","","","","call-function","43","null","259399","pcmwphmpa0","2026-02-13","b852","null","698f946b81c261e86d563e3f","Pilot_1","1","1","8","0.40","8","0.40","8","","8","0","","","","","","","","","",""
"","","","","","survey-text","44","2.0.0","696803","pcmwphmpa0","2026-02-13","b852","null","698f946b81c261e86d563e3f","Pilot_1","1","1","8","0.40","8","0.40","8","","8","0","","437396","","{""dv1_OE_game_satisfaction"":""I think the game seemed quite fair, although did feel quite long at certain points, and I wasn't sure where the ball was going to go. I got the same amount of coins as SP2 so it did feel fair, and got the same outcome too as they did so all good."",""dv1_oe_playtime_satisfaction"":""Yes I was satisfied, it was a direct split in how often I and SP2 got the ball so it seemed fair. The order was quite sporadic so wasn't sure if it would be fair but overall it was super equal and fair. We both got rewarded equally which was great."",""dv1_oe_earnings_satisfaction"":""Yes I am. I think the bonus was a great addition for not much work and always nice to have a little extra on top of challenges. Nice that both me and someone else got a fair bonus but of course wouldn't have minded if I had got the chance to get some more coins."",""dv1_oe_treasurer_behavior"":""I think they were incredibly fair, and split the allocation of the ball throwing to each player perfectly equally, and gave us both an equal chance to return the ball to the treasurer and earn the coin for doing so as part of the challenge. I did think the treasurer would give to the opponent more but I was surprised they didn't."",""dv1_oe_sp2_behavior"":""I think SP2 played the game in the exact same way as I did. I would hope if given the choice, they wouldn't have surrendered some of their coins for me to lose mine as they would also miss out. They didn't throw to me and miss out on any coins, but neither or wouldn't I."",""dv1_oe_message_to_treasurer"":""I would question if they were keeping track of how many times the ball was passed to each player, as it was perfectly fair and if it was I would thank them for doing so which meant that SP2 and I both got equal opportunity to get the coin bonus."",""dv1_oe_message_to_sp2"":""I would say I think we played the game perfectly for them to maximise their coins and bonus payment in the game. Their actions didn't really affect me as I wouldn't expect the ball from them, and the main choice was by the treasurer, and not them passing the ball to me. ""}","","","","","",""
"","","","","","survey-likert","45","2.0.0","721471","pcmwphmpa0","2026-02-13","b852","null","698f946b81c261e86d563e3f","Pilot_1","1","1","8","0.40","8","0.40","8","","8","0","","24665","","{""dv2_praising"":5,""dv2_insulting"":0,""dv2_avoiding"":0,""dv2_become_friends"":4,""dv2_unkind_things"":0,""dv2_helping"":4,""dv2_complementing"":4,""dv2_favor"":5,""dv2_invite_fun"":4,""dv2_ignore"":0}","[0,1,2,3,4,5,6,7,8,9]","","","","",""
"","","","","","survey-likert","46","2.0.0","754272","pcmwphmpa0","2026-02-13","b852","null","698f946b81c261e86d563e3f","Pilot_1","1","1","8","0.40","8","0.40","8","","8","0","","32797","","{""dv3_state_envy"":0,""dv3_state_jealous"":0,""dv3_state_bitter"":0,""dv3_state_resentful"":0,""dv3_state_happy"":5,""dv3_state_compassionate"":5,""dv3_state_surprised"":5,""dv3_state_grateful"":5,""dv3_state_thankful"":5,""dv3_state_sad"":1,""dv3_state_upset"":0,""dv3_state_disappointed"":1,""dv3_state_annoyed"":0,""dv3_state_angry"":0,""dv3_state_shame"":0,""dv3_state_contempt"":4,""dv3_state_joy"":5,""dv3_state_irritated"":0}","[0,1,2,3,4,5,6,7,8,9,10,11,12,13,14,15,16,17]","","","","",""
"","","","","","survey-likert","47","2.0.0","792303","pcmwphmpa0","2026-02-13","b852","null","698f946b81c261e86d563e3f","Pilot_1","1","1","8","0.40","8","0.40","8","","8","0","","38025","","{""dv3a_felt_ignored"":0,""dv3a_wish_received_more"":2,""dv3a_game_different"":1,""dv3a_results_happy"":5,""dv3a_game_unfair"":1,""dv3a_felt_malicious_envy"":0,""dv3a_attention_check_1"":1,""dv3a_performed_well"":5,""dv3a_felt_bad_others"":0,""dv3a_understood_rules"":6,""dv3a_felt_excluded"":1}","[4,3,2,1,0,7,5,9,10,8,6]","","","","",""
"","","","","","survey-likert","48","2.0.0","815093","pcmwphmpa0","2026-02-13","b852","null","698f946b81c261e86d563e3f","Pilot_1","1","1","8","0.40","8","0.40","8","","8","0","","22787","","{""dv3b_sp2_closeness"":2,""dv3b_sp2_shared_goals"":6,""dv3b_sp2_rival"":1,""dv3b_sp2_take_winnings"":1,""dv3b_sp2_competition"":4,""dv3b_sp2_unfiar"":0,""dv3b_sp2_deservingness"":6,""dv3b_sp2_betrayal"":0}","[0,6,7,3,5,2,4,1]","","","","",""
"","","","","","survey-likert","49","2.0.0","827747","pcmwphmpa0","2026-02-13","b852","null","698f946b81c261e86d563e3f","Pilot_1","1","1","8","0.40","8","0.40","8","","8","0","","12652","","{""dv3c_treasurer_betrayal"":0,""dv3b_treasurer_competition"":0,""dv3b_treasurer_rival"":1,""dv3c_treasurer_unfair"":0,""dv3c_treasurer_closeness"":1,""dv3b_treasurer_shared_goals"":0}","[1,3,5,2,0,4]","","","","",""
"","","","","","survey-likert","50","2.0.0","849213","pcmwphmpa0","2026-02-13","b852","null","698f946b81c261e86d563e3f","Pilot_1","1","1","8","0.40","8","0.40","8","","8","0","","21463","","{""dv4_rain_on_parade"":0,""dv4_trade_places_rev"":2,""dv4_angry_others_succeed"":1,""dv4_happy_friends_succeed_rev"":5,""dv4_content_with_self_rev"":5,""dv4_happy_others_succeed_rev"":5,""dv4_pain_friends_succeed"":0,""dv4_prefer_stranger_win"":0}","[0,1,2,3,4,5,6,7]","","","","",""
"","","","","","survey-multi-choice","51","2.1.0","865846","pcmwphmpa0","2026-02-13","b852","null","698f946b81c261e86d563e3f","Pilot_1","1","1","8","0.40","8","0.40","8","","8","0","","16630","","{""demo_attention_check_2"":""1000+"",""demo_sex"":""Male"",""demo_gender"":""Man"",""demo_education"":""Master's degree"",""demo_social_class"":""2 = lower middle"",""demo_marital_status"":""Married/In a domestic partnership""}","[0,1,2,3,4,5]","","","","",""
"","","","","","survey-text","52","2.0.0","868580","pcmwphmpa0","2026-02-13","b852","null","698f946b81c261e86d563e3f","Pilot_1","1","1","8","0.40","8","0.40","8","","8","0","","2732","","{""demo_age"":""24""}","","","","","",""
"","","","","","survey-multi-select","53","null","871810","pcmwphmpa0","2026-02-13","b852","null","698f946b81c261e86d563e3f","Pilot_1","1","1","8","0.40","8","0.40","8","","8","0","","3227","","{""demo_race"":[""White""]}","[0]","","","","",""
"","","","","","survey-likert","54","2.0.0","878343","pcmwphmpa0","2026-02-13","b852","null","698f946b81c261e86d563e3f","Pilot_1","1","1","8","0.40","8","0.40","8","","8","0","","6531","","{""attention_check_3"":4}","[0]","","","","",""
"","","","","","survey-text","55","2.0.0","928660","pcmwphmpa0","2026-02-13","b852","null","698f946b81c261e86d563e3f","Pilot_1","1","1","8","0.40","8","0.40","8","","8","0","","50313","","{""funnel1"":""Seeing how resentment and enviousness can be implored against another"",""funnel2"":""If someone is resentful of another person, will they go out of their own way or at their own expense get revenge or make the other person suffer or be disadvantaged"",""funnel3"":""""}","","","","","",""
