"success","timeout","failed_images","failed_audio","failed_video","trial_type","trial_index","plugin_version","time_elapsed","subject_id","experiment_date","prolific_id_last4","study_id","session_id","version","condition","schedule","sp1Points","sp1Dollars","sp2Points","sp2Dollars","SP1_ball_received_T","SP1_ball_received_SP2","SP2_ball_received_T","burn_amount","task","rt","stimulus","response","question_order","correct","value","from","to","slider_start"
"true","false","[]","[]","[]","preload","0","2.0.0","96","qtv8hhxsy0","2026-02-22","a96a","null","699b84d473ee1fc882da4486","Pilot_1","1","1","8","0.40","8","0.40","8","","8","0","","","","","","","","","",""
"","","","","","html-button-response","1","2.0.0","5300","qtv8hhxsy0","2026-02-22","a96a","null","699b84d473ee1fc882da4486","Pilot_1","1","1","8","0.40","8","0.40","8","","8","0","consent","5201","
    <p style = ""text-align: start; width: 900px""> You are being invited to participate in a research study titled: The Influence of Social Interactions on Decision Making.<br><br>
        This study is being done by Michael McCullough, PhD (Principal Investigator) from UC San Diego. You were selected to participate in this study because you are a representative member of the society the investigators wish to study. 
        The purpose of this research study is to explore how nonverbal social interactions affect the way people talk to themselves. Your participation in this research should last no longer than 30 minutes. If you agree to take part in this study, you will be asked to complete several surveys that ask about your feelings, beliefs, judgments, and personal background.
        Your participation in this study is completely voluntary and you can withdraw at any time. Choosing not to participate or withdrawing will result in no penalty or loss of benefits to which you are entitled. Research sometimes requires that information regarding its purpose not be shared with the research participants because its knowledge could impact the results of the research. 
        Note that none of the aspects of the research being withheld are reasonably expected to affect your willingness to take part. While the tasks you will be asked to perform for this research have been explained, the full intent of the research will not be provided until the completion of the study. At that time, you will have the opportunity to ask questions, including about the purpose of the study and the procedures used, and withdraw your data if you so choose.
        If you have questions about this project or if you have a research-related problem, you may contact the researcher(s), Michael McCullough, Ph.D., Department of Psychology, University of California, San Diego, 9500 Gilman Drive, La Jolla, CA 92093-0109 and by email at memccullough@ucsd.edu. If you have any questions concerning your rights as a research subject, you may contact the UC San Diego Office of IRB Administration at irb@ucsd.edu or 858-246-4777.
        By participating in this research, you are indicating that you are at least 18 years old, have read this consent form, and agree to participate in this research study. Please keep this consent form for your records.</p>
        <p>Do you consent?</p>","0","","","","","",""
"","","","","","html-button-response","2","2.0.0","17290","qtv8hhxsy0","2026-02-22","a96a","null","699b84d473ee1fc882da4486","Pilot_1","1","1","8","0.40","8","0.40","8","","8","0","study_description","11988","<h2>Study Description</h2>
                 <p style=""width: 900px; text-align: start"">Thank you for agreeing to participate in this study! This study seeks to understand how social interactions influence our decision-making processes.<br><br>
                 In this study, you will play a virtual ball-tossing game with two other participants. The game is designed to simulate social interactions and observe how they affect how you make decisions towards other people.<br><br>
                 The instructions for the game will be provided in the next section. To ensure that everyone understands the rules, there will be a short quiz. If you get any answers wrong, don't worry—you will have the opportunity to review the instructions and retake the quiz until you get all the answers correct.<br><br>
                 Please pay close attention to the game and try to engage with the other participants as naturally as possible.</p>","0","","","","","",""
"","","","","","html-button-response","3","2.0.0","52908","qtv8hhxsy0","2026-02-22","a96a","null","699b84d473ee1fc882da4486","Pilot_1","1","1","8","0.40","8","0.40","8","","8","0","game_instructions","35617","<h2>Game Instructions</h2>
                <p style=""width: 1000px; text-align: start"">In Cyberball there are three players: Standard Player 1 (SP1), Standard Player 2 (SP2), and a Treasurer. <b>You are SP1</b>.
                <br><br>
                Your objective in Cyberball is to earn points by tossing a ball. At the end of the game, the points will be converted into a monetary bonus. Each point you earn is worth $0.05. To help you keep track of points, there will be a scoreboard displayed in the top-right corner of the screen during the game.
                <br><br>
                The way the game works is that SP1 and SP2 individually earn points by tossing the ball to the Treasurer. Each time that SP1 or SP2 tossed the ball to the Treasurer, <u>the person who tossed the ball earns one point</u>. In other words, SP1 and SP2 earn points when they get the chance to toss the ball to the Treasurer.
                So, for example, if SP1 tosses the ball to the Treasurer, SP1 will earn one point and SP2 will not earn any points. Likewise, if SP2 tosses the ball to the Treasurer, SP2 will earn one point and SP1 will not earn anything. 
                <br><br>
                Keep in mind that SP1 and SP2 cannot earn points by tossing the ball to each other. SP1 and SP2 can only earn points by tossing the ball to the Treasurer.</p>","0","","","","","",""
"","","","","","survey-multi-choice","4","2.1.0","62063","qtv8hhxsy0","2026-02-22","a96a","null","699b84d473ee1fc882da4486","Pilot_1","1","1","8","0.40","8","0.40","8","","8","0","comprehension_quiz","9152","","{""role"":""Standard Player 1 (SP1)"",""points"":""By tossing the ball to the Treasurer"",""passing"":""Yes"",""passing_points"":""0 points""}","[0,1,2,3]","true","","","",""
"","","","","","html-button-response","5","2.0.0","64720","qtv8hhxsy0","2026-02-22","a96a","null","699b84d473ee1fc882da4486","Pilot_1","1","1","8","0.40","8","0.40","8","","8","0","","2655","<p style=""color:green; font-weight:bold"">Great! You have answered all questions correctly. Let's move on to the game.</p><p>If you need a refresh on the instructions, please click the button <i>Open Cyberball Rules</i> on the top left corner of your screen.</p>","0","","","","","",""
"","","","","","call-function","6","null","64724","qtv8hhxsy0","2026-02-22","a96a","null","699b84d473ee1fc882da4486","Pilot_1","1","1","8","0.40","8","0.40","8","","8","0","","","","","","","","","",""
"","","","","","call-function","7","null","64727","qtv8hhxsy0","2026-02-22","a96a","null","699b84d473ee1fc882da4486","Pilot_1","1","1","8","0.40","8","0.40","8","","8","0","","","","","","","","","",""
"","","","","","html-keyboard-response","8","2.0.0","68513","qtv8hhxsy0","2026-02-22","a96a","null","699b84d473ee1fc882da4486","Pilot_1","1","1","8","0.40","8","0.40","8","","8","0","","","","","","","","Treasurer","SP2",""
"","","","","","html-keyboard-response","9","2.0.0","73548","qtv8hhxsy0","2026-02-22","a96a","null","699b84d473ee1fc882da4486","Pilot_1","1","1","8","0.40","8","0.40","8","","8","0","","","","","","","","SP2","Treasurer",""
"","","","","","html-keyboard-response","10","2.0.0","76789","qtv8hhxsy0","2026-02-22","a96a","null","699b84d473ee1fc882da4486","Pilot_1","1","1","8","0.40","8","0.40","8","","8","0","","","","","","","","Treasurer","SP1",""
"","","","","","html-keyboard-response","11","2.0.0","80354","qtv8hhxsy0","2026-02-22","a96a","null","699b84d473ee1fc882da4486","Pilot_1","1","1","8","0.40","8","0.40","8","","8","0","","","","","","","","SP1","Treasurer",""
"","","","","","html-keyboard-response","12","2.0.0","84249","qtv8hhxsy0","2026-02-22","a96a","null","699b84d473ee1fc882da4486","Pilot_1","1","1","8","0.40","8","0.40","8","","8","0","","","","","","","","Treasurer","SP2",""
"","","","","","html-keyboard-response","13","2.0.0","89264","qtv8hhxsy0","2026-02-22","a96a","null","699b84d473ee1fc882da4486","Pilot_1","1","1","8","0.40","8","0.40","8","","8","0","","","","","","","","SP2","Treasurer",""
"","","","","","html-keyboard-response","14","2.0.0","94381","qtv8hhxsy0","2026-02-22","a96a","null","699b84d473ee1fc882da4486","Pilot_1","1","1","8","0.40","8","0.40","8","","8","0","","","","","","","","Treasurer","SP1",""
"","","","","","html-keyboard-response","15","2.0.0","96780","qtv8hhxsy0","2026-02-22","a96a","null","699b84d473ee1fc882da4486","Pilot_1","1","1","8","0.40","8","0.40","8","","8","0","","","","","","","","SP1","Treasurer",""
"","","","","","html-keyboard-response","16","2.0.0","100480","qtv8hhxsy0","2026-02-22","a96a","null","699b84d473ee1fc882da4486","Pilot_1","1","1","8","0.40","8","0.40","8","","8","0","","","","","","","","Treasurer","SP1",""
"","","","","","html-keyboard-response","17","2.0.0","103279","qtv8hhxsy0","2026-02-22","a96a","null","699b84d473ee1fc882da4486","Pilot_1","1","1","8","0.40","8","0.40","8","","8","0","","","","","","","","SP1","Treasurer",""
"","","","","","html-keyboard-response","18","2.0.0","107442","qtv8hhxsy0","2026-02-22","a96a","null","699b84d473ee1fc882da4486","Pilot_1","1","1","8","0.40","8","0.40","8","","8","0","","","","","","","","Treasurer","SP2",""
"","","","","","html-keyboard-response","19","2.0.0","110779","qtv8hhxsy0","2026-02-22","a96a","null","699b84d473ee1fc882da4486","Pilot_1","1","1","8","0.40","8","0.40","8","","8","0","","","","","","","","SP2","Treasurer",""
"","","","","","html-keyboard-response","20","2.0.0","114139","qtv8hhxsy0","2026-02-22","a96a","null","699b84d473ee1fc882da4486","Pilot_1","1","1","8","0.40","8","0.40","8","","8","0","","","","","","","","Treasurer","SP1",""
"","","","","","html-keyboard-response","21","2.0.0","116747","qtv8hhxsy0","2026-02-22","a96a","null","699b84d473ee1fc882da4486","Pilot_1","1","1","8","0.40","8","0.40","8","","8","0","","","","","","","","SP1","Treasurer",""
"","","","","","html-keyboard-response","22","2.0.0","121463","qtv8hhxsy0","2026-02-22","a96a","null","699b84d473ee1fc882da4486","Pilot_1","1","1","8","0.40","8","0.40","8","","8","0","","","","","","","","Treasurer","SP2",""
"","","","","","html-keyboard-response","23","2.0.0","126280","qtv8hhxsy0","2026-02-22","a96a","null","699b84d473ee1fc882da4486","Pilot_1","1","1","8","0.40","8","0.40","8","","8","0","","","","","","","","SP2","Treasurer",""
"","","","","","html-keyboard-response","24","2.0.0","129946","qtv8hhxsy0","2026-02-22","a96a","null","699b84d473ee1fc882da4486","Pilot_1","1","1","8","0.40","8","0.40","8","","8","0","","","","","","","","Treasurer","SP2",""
"","","","","","html-keyboard-response","25","2.0.0","134499","qtv8hhxsy0","2026-02-22","a96a","null","699b84d473ee1fc882da4486","Pilot_1","1","1","8","0.40","8","0.40","8","","8","0","","","","","","","","SP2","Treasurer",""
"","","","","","html-keyboard-response","26","2.0.0","139714","qtv8hhxsy0","2026-02-22","a96a","null","699b84d473ee1fc882da4486","Pilot_1","1","1","8","0.40","8","0.40","8","","8","0","","","","","","","","Treasurer","SP1",""
"","","","","","html-keyboard-response","27","2.0.0","142494","qtv8hhxsy0","2026-02-22","a96a","null","699b84d473ee1fc882da4486","Pilot_1","1","1","8","0.40","8","0.40","8","","8","0","","","","","","","","SP1","Treasurer",""
"","","","","","html-keyboard-response","28","2.0.0","147147","qtv8hhxsy0","2026-02-22","a96a","null","699b84d473ee1fc882da4486","Pilot_1","1","1","8","0.40","8","0.40","8","","8","0","","","","","","","","Treasurer","SP2",""
"","","","","","html-keyboard-response","29","2.0.0","151231","qtv8hhxsy0","2026-02-22","a96a","null","699b84d473ee1fc882da4486","Pilot_1","1","1","8","0.40","8","0.40","8","","8","0","","","","","","","","SP2","Treasurer",""
"","","","","","html-keyboard-response","30","2.0.0","156066","qtv8hhxsy0","2026-02-22","a96a","null","699b84d473ee1fc882da4486","Pilot_1","1","1","8","0.40","8","0.40","8","","8","0","","","","","","","","Treasurer","SP1",""
"","","","","","html-keyboard-response","31","2.0.0","158562","qtv8hhxsy0","2026-02-22","a96a","null","699b84d473ee1fc882da4486","Pilot_1","1","1","8","0.40","8","0.40","8","","8","0","","","","","","","","SP1","Treasurer",""
"","","","","","html-keyboard-response","32","2.0.0","163030","qtv8hhxsy0","2026-02-22","a96a","null","699b84d473ee1fc882da4486","Pilot_1","1","1","8","0.40","8","0.40","8","","8","0","","","","","","","","Treasurer","SP1",""
"","","","","","html-keyboard-response","33","2.0.0","165782","qtv8hhxsy0","2026-02-22","a96a","null","699b84d473ee1fc882da4486","Pilot_1","1","1","8","0.40","8","0.40","8","","8","0","","","","","","","","SP1","Treasurer",""
"","","","","","html-keyboard-response","34","2.0.0","169713","qtv8hhxsy0","2026-02-22","a96a","null","699b84d473ee1fc882da4486","Pilot_1","1","1","8","0.40","8","0.40","8","","8","0","","","","","","","","Treasurer","SP2",""
"","","","","","html-keyboard-response","35","2.0.0","173963","qtv8hhxsy0","2026-02-22","a96a","null","699b84d473ee1fc882da4486","Pilot_1","1","1","8","0.40","8","0.40","8","","8","0","","","","","","","","SP2","Treasurer",""
"","","","","","html-keyboard-response","36","2.0.0","178312","qtv8hhxsy0","2026-02-22","a96a","null","699b84d473ee1fc882da4486","Pilot_1","1","1","8","0.40","8","0.40","8","","8","0","","","","","","","","Treasurer","SP1",""
"","","","","","html-keyboard-response","37","2.0.0","181181","qtv8hhxsy0","2026-02-22","a96a","null","699b84d473ee1fc882da4486","Pilot_1","1","1","8","0.40","8","0.40","8","","8","0","","","","","","","","SP1","Treasurer",""
"","","","","","html-keyboard-response","38","2.0.0","186331","qtv8hhxsy0","2026-02-22","a96a","null","699b84d473ee1fc882da4486","Pilot_1","1","1","8","0.40","8","0.40","8","","8","0","","","","","","","","Treasurer","SP2",""
"","","","","","html-keyboard-response","39","2.0.0","191063","qtv8hhxsy0","2026-02-22","a96a","null","699b84d473ee1fc882da4486","Pilot_1","1","1","8","0.40","8","0.40","8","","8","0","","","","","","","","SP2","Treasurer",""
"","","","","","html-button-response","40","2.0.0","196568","qtv8hhxsy0","2026-02-22","a96a","null","699b84d473ee1fc882da4486","Pilot_1","1","1","8","0.40","8","0.40","8","","8","0","end_game","5503","<h2>Game Over</h2>
              <p style=""width: 800px; text-align: start;"">The game has ended! You earned <b>8 points</b>, which is equivalent to <b>$0.40</b>.<br><br>
                Your fellow player, Standard Player 2, earned <b>8 points</b>, which is equivalent to <b>$0.40</b>.<br><br>
                Please click the button below to continue to the next part of the study.</p>","0","","","","","",""
"","","","","","survey-text","41","2.0.0","213827","qtv8hhxsy0","2026-02-22","a96a","null","699b84d473ee1fc882da4486","Pilot_1","1","1","8","0.40","8","0.40","8","","8","0","comprehension_check","17253","","{""SP1_ball_received_T"":""8"",""SP2_ball_received_T"":""8""}","","","","","",""
"","","","","","html-slider-response","42","2.0.0","249214","qtv8hhxsy0","2026-02-22","a96a","null","699b84d473ee1fc882da4486","Pilot_1","1","1","8","0.40","8","0.40","8","","8","0","","35385","
  <p style=""width: 1000px; padding: 10px"">
    You may choose to reduce SP2’s earnings by giving up some of your own earnings. This is a <u>one-time, one-sided decision</u>. This means only you make this decision; SP2 will not make a corresponding decision.<br><br>

    For every <b>$0.01</b> you give up, SP2’s earnings are reduced by <b>$0.05</b>.<br>
    For example, giving up <b>$0.03</b> reduces SP2’s earnings by <b>$0.15</b>. Choosing $0 means no change to either participant's earnings.<br>
    Earnings for either participant cannot go below <b>$0</b>.<br><br>

    You may move the slider below to see how different choices would affect both participants’ earnings. Moving the slider does not finalize your decision. Your decision is only locked in once you click 'Continue' and move on to the next task.<br><br>

    There is no correct or expected choice. Please use the slider to indicate how much of your own earnings you would like to give up in order to reduce SP2's earnings.
    </p>

  <div style=""
    display:flex;
    justify-content:center;
    gap:100px;
    margin:30px 0;
    align-items:flex-end;
  "">

    <div style=""text-align:center;"">
      <div id=""sp1-baseline"" style=""font-weight: bold; margin-bottom:6px;"">$0.00</div>
      <div id=""sp1-coins""></div>
      <div style=""margin-top:6px;"">You (SP1)</div>
    </div>

    <div style=""text-align:center;"">
      <div id=""sp2-baseline"" style=""font-weight: bold; margin-bottom:6px;"">$0.00</div>
      <div id=""sp2-coins""></div>
      <div style=""margin-top:6px;"">SP2</div>
    </div>

  </div>
  ","0","","","","","","0"
"","","","","","call-function","43","null","249215","qtv8hhxsy0","2026-02-22","a96a","null","699b84d473ee1fc882da4486","Pilot_1","1","1","8","0.40","8","0.40","8","","8","0","","","","","","","","","",""
"","","","","","survey-text","44","2.0.0","1159098","qtv8hhxsy0","2026-02-22","a96a","null","699b84d473ee1fc882da4486","Pilot_1","1","1","8","0.40","8","0.40","8","","8","0","","909711","","{""dv1_OE_game_satisfaction"":""I felt the game was fair and equal for both players, as we each ended up with the same score, meaning we shared the same number of turns. Neither player had an unfair advantage over the other player. I would not have taken money from the other player for this reason"",""dv1_oe_playtime_satisfaction"":""Yes, I was satisfied with how much I got to play. Both players had an equal number of turns, so neither player had an unfair advantage over the other. Sometimes, it seemed unfair as the other player had a couple of turns in a row, one after the other, but this evened out in the end"",""dv1_oe_earnings_satisfaction"":""I am satisfied with the amount of money I made. I earnt an equal amount to the other player, which was a fair and equal outcombe. I was not prepared to lose some of my money in oreder to reduce the other player's earnings, as I did not feel this was a fair or kind thing to do. "",""dv1_oe_treasurer_behavior"":""The behavior of the treasurer during the game was fair and equal. I agree with and liked their behaviour. The only thing that could have made it more fair would have been to take alternate turns throwning toeach player, rather than sometimes throwing to the same player twice in a row. "",""dv1_oe_sp2_behavior"":""SP\"" played fairly and correctly. They return the ball to the Treasurer each time it was thrown to them. This was the correct thing to do as it earnt them money. It would have made no sense for them to have thrown the ball to me. I completely agree with SP\""'s behaviour."",""dv1_oe_message_to_treasurer"":""If I could speak to the Treasurer  I would thank the for playing so fairly, ensuring that both players could earn an equal amount of money. I would say that although throwing the ball to the other player was a little worrying, as I thought I may not get another turn, I valued that in the  end as it added a little excitement to the game."",""dv1_oe_message_to_sp2"":""If Icould speak to SP2, I would congratulate them on playing a good game. I wholeheartedly agree with their tactics, and I could never have taken any money away from their winnings when given to opportunity to. I would tell them it comforts me to know we both competed together and earnt and equal and fair bonus""}","","","","","",""
"","","","","","survey-likert","45","2.0.0","1210247","qtv8hhxsy0","2026-02-22","a96a","null","699b84d473ee1fc882da4486","Pilot_1","1","1","8","0.40","8","0.40","8","","8","0","","51137","","{""dv2_praising"":3,""dv2_insulting"":0,""dv2_avoiding"":0,""dv2_become_friends"":3,""dv2_unkind_things"":0,""dv2_helping"":6,""dv2_complementing"":3,""dv2_favor"":6,""dv2_invite_fun"":3,""dv2_ignore"":0}","[0,1,2,3,4,5,6,7,8,9]","","","","",""
"","","","","","survey-likert","46","2.0.0","1247933","qtv8hhxsy0","2026-02-22","a96a","null","699b84d473ee1fc882da4486","Pilot_1","1","1","8","0.40","8","0.40","8","","8","0","","37682","","{""dv3_state_envy"":0,""dv3_state_jealous"":0,""dv3_state_bitter"":0,""dv3_state_resentful"":0,""dv3_state_happy"":6,""dv3_state_compassionate"":6,""dv3_state_surprised"":0,""dv3_state_grateful"":3,""dv3_state_thankful"":3,""dv3_state_sad"":0,""dv3_state_upset"":0,""dv3_state_disappointed"":0,""dv3_state_annoyed"":0,""dv3_state_angry"":0,""dv3_state_shame"":0,""dv3_state_contempt"":0,""dv3_state_joy"":3,""dv3_state_irritated"":0}","[0,1,2,3,4,5,6,7,8,9,10,11,12,13,14,15,16,17]","","","","",""
"","","","","","survey-likert","47","2.0.0","1286062","qtv8hhxsy0","2026-02-22","a96a","null","699b84d473ee1fc882da4486","Pilot_1","1","1","8","0.40","8","0.40","8","","8","0","","38125","","{""dv3a_understood_rules"":6,""dv3a_felt_ignored"":0,""dv3a_game_different"":0,""dv3a_felt_malicious_envy"":0,""dv3a_attention_check_1"":1,""dv3a_felt_excluded"":0,""dv3a_wish_received_more"":0,""dv3a_felt_bad_others"":0,""dv3a_results_happy"":6,""dv3a_performed_well"":3,""dv3a_game_unfair"":0}","[8,4,2,7,5,6,3,10,1,9,0]","","","","",""
"","","","","","survey-likert","48","2.0.0","1310086","qtv8hhxsy0","2026-02-22","a96a","null","699b84d473ee1fc882da4486","Pilot_1","1","1","8","0.40","8","0.40","8","","8","0","","24021","","{""dv3b_sp2_unfiar"":0,""dv3b_sp2_take_winnings"":0,""dv3b_sp2_betrayal"":0,""dv3b_sp2_rival"":0,""dv3b_sp2_closeness"":3,""dv3b_sp2_deservingness"":6,""dv3b_sp2_shared_goals"":6,""dv3b_sp2_competition"":3}","[2,3,1,7,0,4,6,5]","","","","",""
"","","","","","survey-likert","49","2.0.0","1323960","qtv8hhxsy0","2026-02-22","a96a","null","699b84d473ee1fc882da4486","Pilot_1","1","1","8","0.40","8","0.40","8","","8","0","","13870","","{""dv3b_treasurer_shared_goals"":6,""dv3c_treasurer_closeness"":3,""dv3b_treasurer_competition"":0,""dv3b_treasurer_rival"":0,""dv3c_treasurer_unfair"":0,""dv3c_treasurer_betrayal"":0}","[4,0,3,5,2,1]","","","","",""
"","","","","","survey-likert","50","2.0.0","1348444","qtv8hhxsy0","2026-02-22","a96a","null","699b84d473ee1fc882da4486","Pilot_1","1","1","8","0.40","8","0.40","8","","8","0","","24480","","{""dv4_rain_on_parade"":0,""dv4_trade_places_rev"":3,""dv4_angry_others_succeed"":0,""dv4_happy_friends_succeed_rev"":6,""dv4_content_with_self_rev"":3,""dv4_happy_others_succeed_rev"":4,""dv4_pain_friends_succeed"":0,""dv4_prefer_stranger_win"":3}","[0,1,2,3,4,5,6,7]","","","","",""
"","","","","","survey-multi-choice","51","2.1.0","1381686","qtv8hhxsy0","2026-02-22","a96a","null","699b84d473ee1fc882da4486","Pilot_1","1","1","8","0.40","8","0.40","8","","8","0","","33237","","{""demo_attention_check_2"":""1000+"",""demo_sex"":""Female"",""demo_gender"":""Woman"",""demo_education"":""Bachelor's degree (4-years)"",""demo_social_class"":""3 = middle"",""demo_marital_status"":""Never married""}","[0,1,2,3,4,5]","","","","",""
"","","","","","survey-text","52","2.0.0","1385428","qtv8hhxsy0","2026-02-22","a96a","null","699b84d473ee1fc882da4486","Pilot_1","1","1","8","0.40","8","0.40","8","","8","0","","3738","","{""demo_age"":""47""}","","","","","",""
"","","","","","survey-multi-select","53","null","1388576","qtv8hhxsy0","2026-02-22","a96a","null","699b84d473ee1fc882da4486","Pilot_1","1","1","8","0.40","8","0.40","8","","8","0","","3143","","{""demo_race"":[""White""]}","[0]","","","","",""
"","","","","","survey-likert","54","2.0.0","1395828","qtv8hhxsy0","2026-02-22","a96a","null","699b84d473ee1fc882da4486","Pilot_1","1","1","8","0.40","8","0.40","8","","8","0","","7250","","{""attention_check_3"":4}","[0]","","","","",""
"","","","","","survey-text","55","2.0.0","1450970","qtv8hhxsy0","2026-02-22","a96a","null","699b84d473ee1fc882da4486","Pilot_1","1","1","8","0.40","8","0.40","8","","8","0","","55139","","{""funnel1"":""Fairness"",""funnel2"":""To see how greedy and selfish some people are"",""funnel3"":""Maybe reduce the word count for some of the answers""}","","","","","",""
