"success","timeout","failed_images","failed_audio","failed_video","trial_type","trial_index","plugin_version","time_elapsed","subject_id","experiment_date","prolific_id_last4","study_id","session_id","version","condition","schedule","sp1Points","sp1Dollars","sp2Points","sp2Dollars","SP1_ball_received_T","SP1_ball_received_SP2","SP2_ball_received_T","burn_amount","task","rt","stimulus","response","question_order","correct","value","from","to","slider_start"
"true","false","[]","[]","[]","preload","0","2.0.0","148","r6pc74r89w","2026-02-16","c7f2","null","69938470dfef67e87d3fa966","Pilot_1","1","1","8","0.40","8","0.40","8","","8","0","","","","","","","","","",""
"","","","","","html-button-response","1","2.0.0","14696","r6pc74r89w","2026-02-16","c7f2","null","69938470dfef67e87d3fa966","Pilot_1","1","1","8","0.40","8","0.40","8","","8","0","consent","14547","
    <p style = ""text-align: start; width: 900px""> You are being invited to participate in a research study titled: The Influence of Social Interactions on Decision Making.<br><br>
        This study is being done by Michael McCullough, PhD (Principal Investigator) from UC San Diego. You were selected to participate in this study because you are a representative member of the society the investigators wish to study. 
        The purpose of this research study is to explore how nonverbal social interactions affect the way people talk to themselves. Your participation in this research should last no longer than 30 minutes. If you agree to take part in this study, you will be asked to complete several surveys that ask about your feelings, beliefs, judgments, and personal background.
        Your participation in this study is completely voluntary and you can withdraw at any time. Choosing not to participate or withdrawing will result in no penalty or loss of benefits to which you are entitled. Research sometimes requires that information regarding its purpose not be shared with the research participants because its knowledge could impact the results of the research. 
        Note that none of the aspects of the research being withheld are reasonably expected to affect your willingness to take part. While the tasks you will be asked to perform for this research have been explained, the full intent of the research will not be provided until the completion of the study. At that time, you will have the opportunity to ask questions, including about the purpose of the study and the procedures used, and withdraw your data if you so choose.
        If you have questions about this project or if you have a research-related problem, you may contact the researcher(s), Michael McCullough, Ph.D., Department of Psychology, University of California, San Diego, 9500 Gilman Drive, La Jolla, CA 92093-0109 and by email at memccullough@ucsd.edu. If you have any questions concerning your rights as a research subject, you may contact the UC San Diego Office of IRB Administration at irb@ucsd.edu or 858-246-4777.
        By participating in this research, you are indicating that you are at least 18 years old, have read this consent form, and agree to participate in this research study. Please keep this consent form for your records.</p>
        <p>Do you consent?</p>","0","","","","","",""
"","","","","","html-button-response","2","2.0.0","29200","r6pc74r89w","2026-02-16","c7f2","null","69938470dfef67e87d3fa966","Pilot_1","1","1","8","0.40","8","0.40","8","","8","0","study_description","14503","<h2>Study Description</h2>
                 <p style=""width: 900px; text-align: start"">Thank you for agreeing to participate in this study! This study seeks to understand how social interactions influence our decision-making processes.<br><br>
                 In this study, you will play a virtual ball-tossing game with two other participants. The game is designed to simulate social interactions and observe how they affect how you make decisions towards other people.<br><br>
                 The instructions for the game will be provided in the next section. To ensure that everyone understands the rules, there will be a short quiz. If you get any answers wrong, don't worry—you will have the opportunity to review the instructions and retake the quiz until you get all the answers correct.<br><br>
                 Please pay close attention to the game and try to engage with the other participants as naturally as possible.</p>","0","","","","","",""
"","","","","","html-button-response","3","2.0.0","96536","r6pc74r89w","2026-02-16","c7f2","null","69938470dfef67e87d3fa966","Pilot_1","1","1","8","0.40","8","0.40","8","","8","0","game_instructions","67336","<h2>Game Instructions</h2>
                <p style=""width: 1000px; text-align: start"">In Cyberball there are three players: Standard Player 1 (SP1), Standard Player 2 (SP2), and a Treasurer. <b>You are SP1</b>.
                <br><br>
                Your objective in Cyberball is to earn points by tossing a ball. At the end of the game, the points will be converted into a monetary bonus. Each point you earn is worth $0.05. To help you keep track of points, there will be a scoreboard displayed in the top-right corner of the screen during the game.
                <br><br>
                The way the game works is that SP1 and SP2 individually earn points by tossing the ball to the Treasurer. Each time that SP1 or SP2 tossed the ball to the Treasurer, <u>the person who tossed the ball earns one point</u>. In other words, SP1 and SP2 earn points when they get the chance to toss the ball to the Treasurer.
                So, for example, if SP1 tosses the ball to the Treasurer, SP1 will earn one point and SP2 will not earn any points. Likewise, if SP2 tosses the ball to the Treasurer, SP2 will earn one point and SP1 will not earn anything. 
                <br><br>
                Keep in mind that SP1 and SP2 cannot earn points by tossing the ball to each other. SP1 and SP2 can only earn points by tossing the ball to the Treasurer.</p>","0","","","","","",""
"","","","","","survey-multi-choice","4","2.1.0","113568","r6pc74r89w","2026-02-16","c7f2","null","69938470dfef67e87d3fa966","Pilot_1","1","1","8","0.40","8","0.40","8","","8","0","comprehension_quiz","17031","","{""role"":""Standard Player 1 (SP1)"",""points"":""By tossing the ball to the Treasurer"",""passing"":""Yes"",""passing_points"":""0 points""}","[0,1,2,3]","true","","","",""
"","","","","","html-button-response","5","2.0.0","115224","r6pc74r89w","2026-02-16","c7f2","null","69938470dfef67e87d3fa966","Pilot_1","1","1","8","0.40","8","0.40","8","","8","0","","1655","<p style=""color:green; font-weight:bold"">Great! You have answered all questions correctly. Let's move on to the game.</p><p>If you need a refresh on the instructions, please click the button <i>Open Cyberball Rules</i> on the top left corner of your screen.</p>","0","","","","","",""
"","","","","","call-function","6","null","115225","r6pc74r89w","2026-02-16","c7f2","null","69938470dfef67e87d3fa966","Pilot_1","1","1","8","0.40","8","0.40","8","","8","0","","","","","","","","","",""
"","","","","","call-function","7","null","115227","r6pc74r89w","2026-02-16","c7f2","null","69938470dfef67e87d3fa966","Pilot_1","1","1","8","0.40","8","0.40","8","","8","0","","","","","","","","","",""
"","","","","","html-keyboard-response","8","2.0.0","118509","r6pc74r89w","2026-02-16","c7f2","null","69938470dfef67e87d3fa966","Pilot_1","1","1","8","0.40","8","0.40","8","","8","0","","","","","","","","Treasurer","SP2",""
"","","","","","html-keyboard-response","9","2.0.0","122359","r6pc74r89w","2026-02-16","c7f2","null","69938470dfef67e87d3fa966","Pilot_1","1","1","8","0.40","8","0.40","8","","8","0","","","","","","","","SP2","Treasurer",""
"","","","","","html-keyboard-response","10","2.0.0","127418","r6pc74r89w","2026-02-16","c7f2","null","69938470dfef67e87d3fa966","Pilot_1","1","1","8","0.40","8","0.40","8","","8","0","","","","","","","","Treasurer","SP1",""
"","","","","","html-keyboard-response","11","2.0.0","136939","r6pc74r89w","2026-02-16","c7f2","null","69938470dfef67e87d3fa966","Pilot_1","1","1","8","0.40","8","0.40","8","","8","0","","","","","","","","SP1","Treasurer",""
"","","","","","html-keyboard-response","12","2.0.0","141692","r6pc74r89w","2026-02-16","c7f2","null","69938470dfef67e87d3fa966","Pilot_1","1","1","8","0.40","8","0.40","8","","8","0","","","","","","","","Treasurer","SP2",""
"","","","","","html-keyboard-response","13","2.0.0","145338","r6pc74r89w","2026-02-16","c7f2","null","69938470dfef67e87d3fa966","Pilot_1","1","1","8","0.40","8","0.40","8","","8","0","","","","","","","","SP2","Treasurer",""
"","","","","","html-keyboard-response","14","2.0.0","148778","r6pc74r89w","2026-02-16","c7f2","null","69938470dfef67e87d3fa966","Pilot_1","1","1","8","0.40","8","0.40","8","","8","0","","","","","","","","Treasurer","SP1",""
"","","","","","html-keyboard-response","15","2.0.0","152249","r6pc74r89w","2026-02-16","c7f2","null","69938470dfef67e87d3fa966","Pilot_1","1","1","8","0.40","8","0.40","8","","8","0","","","","","","","","SP1","Treasurer",""
"","","","","","html-keyboard-response","16","2.0.0","156208","r6pc74r89w","2026-02-16","c7f2","null","69938470dfef67e87d3fa966","Pilot_1","1","1","8","0.40","8","0.40","8","","8","0","","","","","","","","Treasurer","SP1",""
"","","","","","html-keyboard-response","17","2.0.0","159080","r6pc74r89w","2026-02-16","c7f2","null","69938470dfef67e87d3fa966","Pilot_1","1","1","8","0.40","8","0.40","8","","8","0","","","","","","","","SP1","Treasurer",""
"","","","","","html-keyboard-response","18","2.0.0","162635","r6pc74r89w","2026-02-16","c7f2","null","69938470dfef67e87d3fa966","Pilot_1","1","1","8","0.40","8","0.40","8","","8","0","","","","","","","","Treasurer","SP2",""
"","","","","","html-keyboard-response","19","2.0.0","167009","r6pc74r89w","2026-02-16","c7f2","null","69938470dfef67e87d3fa966","Pilot_1","1","1","8","0.40","8","0.40","8","","8","0","","","","","","","","SP2","Treasurer",""
"","","","","","html-keyboard-response","20","2.0.0","170343","r6pc74r89w","2026-02-16","c7f2","null","69938470dfef67e87d3fa966","Pilot_1","1","1","8","0.40","8","0.40","8","","8","0","","","","","","","","Treasurer","SP1",""
"","","","","","html-keyboard-response","21","2.0.0","173425","r6pc74r89w","2026-02-16","c7f2","null","69938470dfef67e87d3fa966","Pilot_1","1","1","8","0.40","8","0.40","8","","8","0","","","","","","","","SP1","Treasurer",""
"","","","","","html-keyboard-response","22","2.0.0","176860","r6pc74r89w","2026-02-16","c7f2","null","69938470dfef67e87d3fa966","Pilot_1","1","1","8","0.40","8","0.40","8","","8","0","","","","","","","","Treasurer","SP2",""
"","","","","","html-keyboard-response","23","2.0.0","180915","r6pc74r89w","2026-02-16","c7f2","null","69938470dfef67e87d3fa966","Pilot_1","1","1","8","0.40","8","0.40","8","","8","0","","","","","","","","SP2","Treasurer",""
"","","","","","html-keyboard-response","24","2.0.0","185242","r6pc74r89w","2026-02-16","c7f2","null","69938470dfef67e87d3fa966","Pilot_1","1","1","8","0.40","8","0.40","8","","8","0","","","","","","","","Treasurer","SP2",""
"","","","","","html-keyboard-response","25","2.0.0","189785","r6pc74r89w","2026-02-16","c7f2","null","69938470dfef67e87d3fa966","Pilot_1","1","1","8","0.40","8","0.40","8","","8","0","","","","","","","","SP2","Treasurer",""
"","","","","","html-keyboard-response","26","2.0.0","193329","r6pc74r89w","2026-02-16","c7f2","null","69938470dfef67e87d3fa966","Pilot_1","1","1","8","0.40","8","0.40","8","","8","0","","","","","","","","Treasurer","SP1",""
"","","","","","html-keyboard-response","27","2.0.0","196083","r6pc74r89w","2026-02-16","c7f2","null","69938470dfef67e87d3fa966","Pilot_1","1","1","8","0.40","8","0.40","8","","8","0","","","","","","","","SP1","Treasurer",""
"","","","","","html-keyboard-response","28","2.0.0","201279","r6pc74r89w","2026-02-16","c7f2","null","69938470dfef67e87d3fa966","Pilot_1","1","1","8","0.40","8","0.40","8","","8","0","","","","","","","","Treasurer","SP2",""
"","","","","","html-keyboard-response","29","2.0.0","206484","r6pc74r89w","2026-02-16","c7f2","null","69938470dfef67e87d3fa966","Pilot_1","1","1","8","0.40","8","0.40","8","","8","0","","","","","","","","SP2","Treasurer",""
"","","","","","html-keyboard-response","30","2.0.0","209823","r6pc74r89w","2026-02-16","c7f2","null","69938470dfef67e87d3fa966","Pilot_1","1","1","8","0.40","8","0.40","8","","8","0","","","","","","","","Treasurer","SP1",""
"","","","","","html-keyboard-response","31","2.0.0","215793","r6pc74r89w","2026-02-16","c7f2","null","69938470dfef67e87d3fa966","Pilot_1","1","1","8","0.40","8","0.40","8","","8","0","","","","","","","","SP1","Treasurer",""
"","","","","","html-keyboard-response","32","2.0.0","220044","r6pc74r89w","2026-02-16","c7f2","null","69938470dfef67e87d3fa966","Pilot_1","1","1","8","0.40","8","0.40","8","","8","0","","","","","","","","Treasurer","SP1",""
"","","","","","html-keyboard-response","33","2.0.0","222698","r6pc74r89w","2026-02-16","c7f2","null","69938470dfef67e87d3fa966","Pilot_1","1","1","8","0.40","8","0.40","8","","8","0","","","","","","","","SP1","Treasurer",""
"","","","","","html-keyboard-response","34","2.0.0","227008","r6pc74r89w","2026-02-16","c7f2","null","69938470dfef67e87d3fa966","Pilot_1","1","1","8","0.40","8","0.40","8","","8","0","","","","","","","","Treasurer","SP2",""
"","","","","","html-keyboard-response","35","2.0.0","231435","r6pc74r89w","2026-02-16","c7f2","null","69938470dfef67e87d3fa966","Pilot_1","1","1","8","0.40","8","0.40","8","","8","0","","","","","","","","SP2","Treasurer",""
"","","","","","html-keyboard-response","36","2.0.0","236266","r6pc74r89w","2026-02-16","c7f2","null","69938470dfef67e87d3fa966","Pilot_1","1","1","8","0.40","8","0.40","8","","8","0","","","","","","","","Treasurer","SP1",""
"","","","","","html-keyboard-response","37","2.0.0","239541","r6pc74r89w","2026-02-16","c7f2","null","69938470dfef67e87d3fa966","Pilot_1","1","1","8","0.40","8","0.40","8","","8","0","","","","","","","","SP1","Treasurer",""
"","","","","","html-keyboard-response","38","2.0.0","243397","r6pc74r89w","2026-02-16","c7f2","null","69938470dfef67e87d3fa966","Pilot_1","1","1","8","0.40","8","0.40","8","","8","0","","","","","","","","Treasurer","SP2",""
"","","","","","html-keyboard-response","39","2.0.0","248521","r6pc74r89w","2026-02-16","c7f2","null","69938470dfef67e87d3fa966","Pilot_1","1","1","8","0.40","8","0.40","8","","8","0","","","","","","","","SP2","Treasurer",""
"","","","","","html-button-response","40","2.0.0","308264","r6pc74r89w","2026-02-16","c7f2","null","69938470dfef67e87d3fa966","Pilot_1","1","1","8","0.40","8","0.40","8","","8","0","end_game","59741","<h2>Game Over</h2>
              <p style=""width: 800px; text-align: start;"">The game has ended! You earned <b>8 points</b>, which is equivalent to <b>$0.40</b>.<br><br>
                Your fellow player, Standard Player 2, earned <b>8 points</b>, which is equivalent to <b>$0.40</b>.<br><br>
                Please click the button below to continue to the next part of the study.</p>","0","","","","","",""
"","","","","","survey-text","41","2.0.0","323240","r6pc74r89w","2026-02-16","c7f2","null","69938470dfef67e87d3fa966","Pilot_1","1","1","8","0.40","8","0.40","8","","8","0","comprehension_check","14975","","{""SP1_ball_received_T"":""8"",""SP2_ball_received_T"":""8""}","","","","","",""
"","","","","","html-slider-response","42","2.0.0","363048","r6pc74r89w","2026-02-16","c7f2","null","69938470dfef67e87d3fa966","Pilot_1","1","1","8","0.40","8","0.40","8","","8","0","","39807","
  <p style=""width: 1000px; padding: 10px"">
    You may choose to reduce SP2’s earnings by giving up some of your own earnings. This is a <u>one-time, one-sided decision</u>. This means only you make this decision; SP2 will not make a corresponding decision.<br><br>

    For every <b>$0.01</b> you give up, SP2’s earnings are reduced by <b>$0.05</b>.<br>
    For example, giving up <b>$0.03</b> reduces SP2’s earnings by <b>$0.15</b>. Choosing $0 means no change to either participant's earnings.<br>
    Earnings for either participant cannot go below <b>$0</b>.<br><br>

    You may move the slider below to see how different choices would affect both participants’ earnings. Moving the slider does not finalize your decision. Your decision is only locked in once you click 'Continue' and move on to the next task.<br><br>

    There is no correct or expected choice. Please use the slider to indicate how much of your own earnings you would like to give up in order to reduce SP2's earnings.
    </p>

  <div style=""
    display:flex;
    justify-content:center;
    gap:100px;
    margin:30px 0;
    align-items:flex-end;
  "">

    <div style=""text-align:center;"">
      <div id=""sp1-baseline"" style=""font-weight: bold; margin-bottom:6px;"">$0.00</div>
      <div id=""sp1-coins""></div>
      <div style=""margin-top:6px;"">You (SP1)</div>
    </div>

    <div style=""text-align:center;"">
      <div id=""sp2-baseline"" style=""font-weight: bold; margin-bottom:6px;"">$0.00</div>
      <div id=""sp2-coins""></div>
      <div style=""margin-top:6px;"">SP2</div>
    </div>

  </div>
  ","0","","","","","","0"
"","","","","","call-function","43","null","363048","r6pc74r89w","2026-02-16","c7f2","null","69938470dfef67e87d3fa966","Pilot_1","1","1","8","0.40","8","0.40","8","","8","0","","","","","","","","","",""
"","","","","","survey-text","44","2.0.0","1045736","r6pc74r89w","2026-02-16","c7f2","null","69938470dfef67e87d3fa966","Pilot_1","1","1","8","0.40","8","0.40","8","","8","0","","682684","","{""dv1_OE_game_satisfaction"":""Satisfied because I got all the points possible.  I could have done no better.  The game was rigged so it was impossible to screw up.  It was kinda dull though.  I mean I couldn't drop the ball or miss with the throw and the same wasa true for the other guy."",""dv1_oe_playtime_satisfaction"":""It was a little tedious so if the game ended earlier it would not have bothered me.  I was given the ball the same amount of times as the other guy so no complaints there, it was a fair distribution.  It would have be better tohave a bit of variation, a way to steal the ball or drop it"",""dv1_oe_earnings_satisfaction"":""It's a pittance.  So in that sense dissatisfied.  But according to the rules of the game it was the maximum I was allowed to win so in that way it was satisfactory.  But I wouldn't normally cross the street for 40 cents.  I'd need at least a dollar to do that."",""dv1_oe_treasurer_behavior"":""The treasurer acted in a very fair and equitable manner.  He and or she distributed the ball equally to my self and to the other guy.  The so called treasurer made sure we each came away with maximum payments.  But while fair, he was eminentaly predicable and therfore a boring actor."",""dv1_oe_sp2_behavior"":""SP2 was just an automoton.  Or if he or she wasn't, if he or she was in fact human, they behaved exactly as expected.  After all, they were given no choice.  They couldn't throw the ball to me for instance just to break the monotony.  They nad no choice at all."",""dv1_oe_message_to_treasurer"":""I would say, 'Hey, buddy, can you mix it up a bit?  You know, throw underhanded or overhanded or lob it and toss a fast ball or something.  Do something to add some element of doubt to the game, make it harder for me or the other guy to catch the ball.  Or maybe sometime throw a rock which we had to duck instead of catch.\"""",""dv1_oe_message_to_sp2"":""I would sau, \""Psst, hey buddy.  What's with this stiff of a treasurer.  He's acting like he's just playing catch with some young kid.  Makes it easy for us to catch, makes it sure that we both win the same.  There's no competition, no real fun in this game.  Wanna get out of here and go get a beer?  Maybe play some pinball or darts?""}","","","","","",""
"","","","","","survey-likert","45","2.0.0","1087568","r6pc74r89w","2026-02-16","c7f2","null","69938470dfef67e87d3fa966","Pilot_1","1","1","8","0.40","8","0.40","8","","8","0","","41830","","{""dv2_praising"":3,""dv2_insulting"":0,""dv2_avoiding"":1,""dv2_become_friends"":4,""dv2_unkind_things"":0,""dv2_helping"":5,""dv2_complementing"":4,""dv2_favor"":4,""dv2_invite_fun"":5,""dv2_ignore"":1}","[0,1,2,3,4,5,6,7,8,9]","","","","",""
"","","","","","survey-likert","46","2.0.0","1140424","r6pc74r89w","2026-02-16","c7f2","null","69938470dfef67e87d3fa966","Pilot_1","1","1","8","0.40","8","0.40","8","","8","0","","52855","","{""dv3_state_envy"":0,""dv3_state_jealous"":0,""dv3_state_bitter"":0,""dv3_state_resentful"":0,""dv3_state_happy"":3,""dv3_state_compassionate"":4,""dv3_state_surprised"":2,""dv3_state_grateful"":2,""dv3_state_thankful"":2,""dv3_state_sad"":0,""dv3_state_upset"":0,""dv3_state_disappointed"":0,""dv3_state_annoyed"":0,""dv3_state_angry"":0,""dv3_state_shame"":0,""dv3_state_contempt"":0,""dv3_state_joy"":1,""dv3_state_irritated"":1}","[0,1,2,3,4,5,6,7,8,9,10,11,12,13,14,15,16,17]","","","","",""
"","","","","","survey-likert","47","2.0.0","1181576","r6pc74r89w","2026-02-16","c7f2","null","69938470dfef67e87d3fa966","Pilot_1","1","1","8","0.40","8","0.40","8","","8","0","","41151","","{""dv3a_game_different"":6,""dv3a_performed_well"":6,""dv3a_felt_malicious_envy"":0,""dv3a_felt_ignored"":0,""dv3a_felt_bad_others"":0,""dv3a_felt_excluded"":0,""dv3a_game_unfair"":0,""dv3a_wish_received_more"":4,""dv3a_attention_check_1"":1,""dv3a_results_happy"":1,""dv3a_understood_rules"":6}","[2,9,7,4,10,6,0,3,5,1,8]","","","","",""
"","","","","","survey-likert","48","2.0.0","1212904","r6pc74r89w","2026-02-16","c7f2","null","69938470dfef67e87d3fa966","Pilot_1","1","1","8","0.40","8","0.40","8","","8","0","","31326","","{""dv3b_sp2_rival"":4,""dv3b_sp2_closeness"":4,""dv3b_sp2_take_winnings"":0,""dv3b_sp2_unfiar"":0,""dv3b_sp2_competition"":1,""dv3b_sp2_shared_goals"":6,""dv3b_sp2_deservingness"":6,""dv3b_sp2_betrayal"":0}","[7,0,3,2,5,6,4,1]","","","","",""
"","","","","","survey-likert","49","2.0.0","1252903","r6pc74r89w","2026-02-16","c7f2","null","69938470dfef67e87d3fa966","Pilot_1","1","1","8","0.40","8","0.40","8","","8","0","","39998","","{""dv3c_treasurer_betrayal"":0,""dv3c_treasurer_unfair"":0,""dv3c_treasurer_closeness"":0,""dv3b_treasurer_shared_goals"":0,""dv3b_treasurer_rival"":0,""dv3b_treasurer_competition"":0}","[1,2,0,4,5,3]","","","","",""
"","","","","","survey-likert","50","2.0.0","1287056","r6pc74r89w","2026-02-16","c7f2","null","69938470dfef67e87d3fa966","Pilot_1","1","1","8","0.40","8","0.40","8","","8","0","","34151","","{""dv4_rain_on_parade"":0,""dv4_trade_places_rev"":2,""dv4_angry_others_succeed"":0,""dv4_happy_friends_succeed_rev"":5,""dv4_content_with_self_rev"":5,""dv4_happy_others_succeed_rev"":4,""dv4_pain_friends_succeed"":0,""dv4_prefer_stranger_win"":1}","[0,1,2,3,4,5,6,7]","","","","",""
"","","","","","survey-multi-choice","51","2.1.0","1312663","r6pc74r89w","2026-02-16","c7f2","null","69938470dfef67e87d3fa966","Pilot_1","1","1","8","0.40","8","0.40","8","","8","0","","25606","","{""demo_attention_check_2"":""1000+"",""demo_sex"":""Male"",""demo_gender"":""Man"",""demo_education"":""Bachelor's degree (4-years)"",""demo_social_class"":""4 = upper middle"",""demo_marital_status"":""Married/In a domestic partnership""}","[0,1,2,3,4,5]","","","","",""
"","","","","","survey-text","52","2.0.0","1318320","r6pc74r89w","2026-02-16","c7f2","null","69938470dfef67e87d3fa966","Pilot_1","1","1","8","0.40","8","0.40","8","","8","0","","5655","","{""demo_age"":""72""}","","","","","",""
"","","","","","survey-multi-select","53","null","1343728","r6pc74r89w","2026-02-16","c7f2","null","69938470dfef67e87d3fa966","Pilot_1","1","1","8","0.40","8","0.40","8","","8","0","","25406","","{""demo_race"":[""White""]}","[0]","","","","",""
"","","","","","survey-likert","54","2.0.0","1347920","r6pc74r89w","2026-02-16","c7f2","null","69938470dfef67e87d3fa966","Pilot_1","1","1","8","0.40","8","0.40","8","","8","0","","4190","","{""attention_check_3"":4}","[0]","","","","",""
"","","","","","survey-text","55","2.0.0","1392768","r6pc74r89w","2026-02-16","c7f2","null","69938470dfef67e87d3fa966","Pilot_1","1","1","8","0.40","8","0.40","8","","8","0","","44847","","{""funnel1"":""Schadenfreude"",""funnel2"":""People are jerks."",""funnel3"":""n/a""}","","","","","",""
