"success","timeout","failed_images","failed_audio","failed_video","trial_type","trial_index","plugin_version","time_elapsed","subject_id","experiment_date","prolific_id_last4","study_id","session_id","version","condition","schedule","sp1Points","sp1Dollars","sp2Points","sp2Dollars","SP1_ball_received_T","SP1_ball_received_SP2","SP2_ball_received_T","burn_amount","task","rt","stimulus","response","question_order","correct","value","from","to","slider_start"
"true","false","[]","[]","[]","preload","0","2.0.0","178","rx5f00rcqz","2026-02-16","7e23","null","6993847e8464cd554a5ac474","Pilot_1","3","3","4","0.20","12","0.60","4","0","12","10","","","","","","","","","",""
"","","","","","html-button-response","1","2.0.0","18561","rx5f00rcqz","2026-02-16","7e23","null","6993847e8464cd554a5ac474","Pilot_1","3","3","4","0.20","12","0.60","4","0","12","10","consent","18383","
    <p style = ""text-align: start; width: 900px""> You are being invited to participate in a research study titled: The Influence of Social Interactions on Decision Making.<br><br>
        This study is being done by Michael McCullough, PhD (Principal Investigator) from UC San Diego. You were selected to participate in this study because you are a representative member of the society the investigators wish to study. 
        The purpose of this research study is to explore how nonverbal social interactions affect the way people talk to themselves. Your participation in this research should last no longer than 30 minutes. If you agree to take part in this study, you will be asked to complete several surveys that ask about your feelings, beliefs, judgments, and personal background.
        Your participation in this study is completely voluntary and you can withdraw at any time. Choosing not to participate or withdrawing will result in no penalty or loss of benefits to which you are entitled. Research sometimes requires that information regarding its purpose not be shared with the research participants because its knowledge could impact the results of the research. 
        Note that none of the aspects of the research being withheld are reasonably expected to affect your willingness to take part. While the tasks you will be asked to perform for this research have been explained, the full intent of the research will not be provided until the completion of the study. At that time, you will have the opportunity to ask questions, including about the purpose of the study and the procedures used, and withdraw your data if you so choose.
        If you have questions about this project or if you have a research-related problem, you may contact the researcher(s), Michael McCullough, Ph.D., Department of Psychology, University of California, San Diego, 9500 Gilman Drive, La Jolla, CA 92093-0109 and by email at memccullough@ucsd.edu. If you have any questions concerning your rights as a research subject, you may contact the UC San Diego Office of IRB Administration at irb@ucsd.edu or 858-246-4777.
        By participating in this research, you are indicating that you are at least 18 years old, have read this consent form, and agree to participate in this research study. Please keep this consent form for your records.</p>
        <p>Do you consent?</p>","0","","","","","",""
"","","","","","html-button-response","2","2.0.0","25827","rx5f00rcqz","2026-02-16","7e23","null","6993847e8464cd554a5ac474","Pilot_1","3","3","4","0.20","12","0.60","4","0","12","10","study_description","7265","<h2>Study Description</h2>
                 <p style=""width: 900px; text-align: start"">Thank you for agreeing to participate in this study! This study seeks to understand how social interactions influence our decision-making processes.<br><br>
                 In this study, you will play a virtual ball-tossing game with two other participants. The game is designed to simulate social interactions and observe how they affect how you make decisions towards other people.<br><br>
                 The instructions for the game will be provided in the next section. To ensure that everyone understands the rules, there will be a short quiz. If you get any answers wrong, don't worry—you will have the opportunity to review the instructions and retake the quiz until you get all the answers correct.<br><br>
                 Please pay close attention to the game and try to engage with the other participants as naturally as possible.</p>","0","","","","","",""
"","","","","","html-button-response","3","2.0.0","47528","rx5f00rcqz","2026-02-16","7e23","null","6993847e8464cd554a5ac474","Pilot_1","3","3","4","0.20","12","0.60","4","0","12","10","game_instructions","21701","<h2>Game Instructions</h2>
                <p style=""width: 1000px; text-align: start"">In Cyberball there are three players: Standard Player 1 (SP1), Standard Player 2 (SP2), and a Treasurer. <b>You are SP1</b>.
                <br><br>
                Your objective in Cyberball is to earn points by tossing a ball. At the end of the game, the points will be converted into a monetary bonus. Each point you earn is worth $0.05. To help you keep track of points, there will be a scoreboard displayed in the top-right corner of the screen during the game.<br>
                <br>
                The way the game works is that SP1 and SP2 individually earn points by tossing the ball to the Treasurer. Each time that SP1 or SP2 tossed the ball to the Treasurer, <u>the person who tossed the ball earns one point</u>. In other words, SP1 and SP2 earn points when they get the chance to toss the ball to the Treasurer. Of course, you could toss the ball to whomever you want, but you will only earn points when you pass the ball to the Treasurer.
                So, for example, if SP1 tosses the ball to the Treasurer, SP1 will earn one point and SP2 will not earn any points. Likewise, if SP2 tosses the ball to the Treasurer, SP2 will earn one point and SP1 will not earn anything. 
                <br><br>
                Keep in mind that SP1 and SP2 cannot earn points by tossing the ball to each other.
                SP1 and SP2 can only earn points by tossing the ball to the Treasurer. So, for example, if SP1 tosses the ball to SP2, neither SP1 or SP2 will earn any points. But whoever then throws the ball to the Treasurer will earn a point.</p>","0","","","","","",""
"","","","","","survey-multi-choice","4","2.1.0","117776","rx5f00rcqz","2026-02-16","7e23","null","6993847e8464cd554a5ac474","Pilot_1","3","3","4","0.20","12","0.60","4","0","12","10","comprehension_quiz","70247","","{""role"":""Standard Player 1 (SP1)"",""points"":""By tossing the ball to the Treasurer"",""passing"":""No"",""passing_points"":""0 points""}","[0,1,2,3]","false","","","",""
"","","","","","html-button-response","5","2.0.0","119538","rx5f00rcqz","2026-02-16","7e23","null","6993847e8464cd554a5ac474","Pilot_1","3","3","4","0.20","12","0.60","4","0","12","10","","1761","
    <p style=""color:red; font-weight:bold;"">
      Some of your answers were incorrect.
    </p>
    <p>Please re-read the instructions and try again.</p>","0","","","","","",""
"","","","","","html-button-response","6","2.0.0","122381","rx5f00rcqz","2026-02-16","7e23","null","6993847e8464cd554a5ac474","Pilot_1","3","3","4","0.20","12","0.60","4","0","12","10","game_instructions","2842","<h2>Game Instructions</h2>
                <p style=""width: 1000px; text-align: start"">In Cyberball there are three players: Standard Player 1 (SP1), Standard Player 2 (SP2), and a Treasurer. <b>You are SP1</b>.
                <br><br>
                Your objective in Cyberball is to earn points by tossing a ball. At the end of the game, the points will be converted into a monetary bonus. Each point you earn is worth $0.05. To help you keep track of points, there will be a scoreboard displayed in the top-right corner of the screen during the game.<br>
                <br>
                The way the game works is that SP1 and SP2 individually earn points by tossing the ball to the Treasurer. Each time that SP1 or SP2 tossed the ball to the Treasurer, <u>the person who tossed the ball earns one point</u>. In other words, SP1 and SP2 earn points when they get the chance to toss the ball to the Treasurer. Of course, you could toss the ball to whomever you want, but you will only earn points when you pass the ball to the Treasurer.
                So, for example, if SP1 tosses the ball to the Treasurer, SP1 will earn one point and SP2 will not earn any points. Likewise, if SP2 tosses the ball to the Treasurer, SP2 will earn one point and SP1 will not earn anything. 
                <br><br>
                Keep in mind that SP1 and SP2 cannot earn points by tossing the ball to each other.
                SP1 and SP2 can only earn points by tossing the ball to the Treasurer. So, for example, if SP1 tosses the ball to SP2, neither SP1 or SP2 will earn any points. But whoever then throws the ball to the Treasurer will earn a point.</p>","0","","","","","",""
"","","","","","survey-multi-choice","7","2.1.0","175162","rx5f00rcqz","2026-02-16","7e23","null","6993847e8464cd554a5ac474","Pilot_1","3","3","4","0.20","12","0.60","4","0","12","10","comprehension_quiz","52781","","{""role"":""Standard Player 1 (SP1)"",""points"":""By tossing the ball to the Treasurer"",""passing"":""Yes"",""passing_points"":""0 points""}","[0,1,2,3]","true","","","",""
"","","","","","html-button-response","8","2.0.0","178408","rx5f00rcqz","2026-02-16","7e23","null","6993847e8464cd554a5ac474","Pilot_1","3","3","4","0.20","12","0.60","4","0","12","10","","3245","<p style=""color:green; font-weight:bold"">Great! You have answered all questions correctly. Let's move on to the game.</p><p>If you need a refresh on the instructions, please click the button <i>Open Cyberball Rules</i> on the top left corner of your screen.</p>","0","","","","","",""
"","","","","","call-function","9","null","178409","rx5f00rcqz","2026-02-16","7e23","null","6993847e8464cd554a5ac474","Pilot_1","3","3","4","0.20","12","0.60","4","0","12","10","","","","","","","","","",""
"","","","","","call-function","10","null","178410","rx5f00rcqz","2026-02-16","7e23","null","6993847e8464cd554a5ac474","Pilot_1","3","3","4","0.20","12","0.60","4","0","12","10","","","","","","","","","",""
"","","","","","html-keyboard-response","11","2.0.0","182514","rx5f00rcqz","2026-02-16","7e23","null","6993847e8464cd554a5ac474","Pilot_1","3","3","4","0.20","12","0.60","4","0","12","10","","","","","","","","Treasurer","SP2",""
"","","","","","html-keyboard-response","12","2.0.0","186615","rx5f00rcqz","2026-02-16","7e23","null","6993847e8464cd554a5ac474","Pilot_1","3","3","4","0.20","12","0.60","4","0","12","10","","","","","","","","SP2","Treasurer",""
"","","","","","html-keyboard-response","13","2.0.0","190111","rx5f00rcqz","2026-02-16","7e23","null","6993847e8464cd554a5ac474","Pilot_1","3","3","4","0.20","12","0.60","4","0","12","10","","","","","","","","Treasurer","SP1",""
"","","","","","html-keyboard-response","14","2.0.0","194270","rx5f00rcqz","2026-02-16","7e23","null","6993847e8464cd554a5ac474","Pilot_1","3","3","4","0.20","12","0.60","4","0","12","10","","","","","","","","SP1","Treasurer",""
"","","","","","html-keyboard-response","15","2.0.0","199042","rx5f00rcqz","2026-02-16","7e23","null","6993847e8464cd554a5ac474","Pilot_1","3","3","4","0.20","12","0.60","4","0","12","10","","","","","","","","Treasurer","SP2",""
"","","","","","html-keyboard-response","16","2.0.0","203971","rx5f00rcqz","2026-02-16","7e23","null","6993847e8464cd554a5ac474","Pilot_1","3","3","4","0.20","12","0.60","4","0","12","10","","","","","","","","SP2","Treasurer",""
"","","","","","html-keyboard-response","17","2.0.0","208090","rx5f00rcqz","2026-02-16","7e23","null","6993847e8464cd554a5ac474","Pilot_1","3","3","4","0.20","12","0.60","4","0","12","10","","","","","","","","Treasurer","SP2",""
"","","","","","html-keyboard-response","18","2.0.0","211917","rx5f00rcqz","2026-02-16","7e23","null","6993847e8464cd554a5ac474","Pilot_1","3","3","4","0.20","12","0.60","4","0","12","10","","","","","","","","SP2","Treasurer",""
"","","","","","html-keyboard-response","19","2.0.0","215769","rx5f00rcqz","2026-02-16","7e23","null","6993847e8464cd554a5ac474","Pilot_1","3","3","4","0.20","12","0.60","4","0","12","10","","","","","","","","Treasurer","SP1",""
"","","","","","html-keyboard-response","20","2.0.0","218555","rx5f00rcqz","2026-02-16","7e23","null","6993847e8464cd554a5ac474","Pilot_1","3","3","4","0.20","12","0.60","4","0","12","10","","","","","","","","SP1","Treasurer",""
"","","","","","html-keyboard-response","21","2.0.0","223523","rx5f00rcqz","2026-02-16","7e23","null","6993847e8464cd554a5ac474","Pilot_1","3","3","4","0.20","12","0.60","4","0","12","10","","","","","","","","Treasurer","SP2",""
"","","","","","html-keyboard-response","22","2.0.0","228391","rx5f00rcqz","2026-02-16","7e23","null","6993847e8464cd554a5ac474","Pilot_1","3","3","4","0.20","12","0.60","4","0","12","10","","","","","","","","SP2","Treasurer",""
"","","","","","html-keyboard-response","23","2.0.0","231682","rx5f00rcqz","2026-02-16","7e23","null","6993847e8464cd554a5ac474","Pilot_1","3","3","4","0.20","12","0.60","4","0","12","10","","","","","","","","Treasurer","SP2",""
"","","","","","html-keyboard-response","24","2.0.0","235400","rx5f00rcqz","2026-02-16","7e23","null","6993847e8464cd554a5ac474","Pilot_1","3","3","4","0.20","12","0.60","4","0","12","10","","","","","","","","SP2","Treasurer",""
"","","","","","html-keyboard-response","25","2.0.0","239571","rx5f00rcqz","2026-02-16","7e23","null","6993847e8464cd554a5ac474","Pilot_1","3","3","4","0.20","12","0.60","4","0","12","10","","","","","","","","Treasurer","SP1",""
"","","","","","html-keyboard-response","26","2.0.0","242215","rx5f00rcqz","2026-02-16","7e23","null","6993847e8464cd554a5ac474","Pilot_1","3","3","4","0.20","12","0.60","4","0","12","10","","","","","","","","SP1","Treasurer",""
"","","","","","html-keyboard-response","27","2.0.0","246491","rx5f00rcqz","2026-02-16","7e23","null","6993847e8464cd554a5ac474","Pilot_1","3","3","4","0.20","12","0.60","4","0","12","10","","","","","","","","Treasurer","SP2",""
"","","","","","html-keyboard-response","28","2.0.0","250726","rx5f00rcqz","2026-02-16","7e23","null","6993847e8464cd554a5ac474","Pilot_1","3","3","4","0.20","12","0.60","4","0","12","10","","","","","","","","SP2","Treasurer",""
"","","","","","html-keyboard-response","29","2.0.0","255840","rx5f00rcqz","2026-02-16","7e23","null","6993847e8464cd554a5ac474","Pilot_1","3","3","4","0.20","12","0.60","4","0","12","10","","","","","","","","Treasurer","SP2",""
"","","","","","html-keyboard-response","30","2.0.0","260906","rx5f00rcqz","2026-02-16","7e23","null","6993847e8464cd554a5ac474","Pilot_1","3","3","4","0.20","12","0.60","4","0","12","10","","","","","","","","SP2","Treasurer",""
"","","","","","html-keyboard-response","31","2.0.0","264658","rx5f00rcqz","2026-02-16","7e23","null","6993847e8464cd554a5ac474","Pilot_1","3","3","4","0.20","12","0.60","4","0","12","10","","","","","","","","Treasurer","SP1",""
"","","","","","html-keyboard-response","32","2.0.0","267346","rx5f00rcqz","2026-02-16","7e23","null","6993847e8464cd554a5ac474","Pilot_1","3","3","4","0.20","12","0.60","4","0","12","10","","","","","","","","SP1","Treasurer",""
"","","","","","html-keyboard-response","33","2.0.0","271862","rx5f00rcqz","2026-02-16","7e23","null","6993847e8464cd554a5ac474","Pilot_1","3","3","4","0.20","12","0.60","4","0","12","10","","","","","","","","Treasurer","SP2",""
"","","","","","html-keyboard-response","34","2.0.0","275252","rx5f00rcqz","2026-02-16","7e23","null","6993847e8464cd554a5ac474","Pilot_1","3","3","4","0.20","12","0.60","4","0","12","10","","","","","","","","SP2","Treasurer",""
"","","","","","html-keyboard-response","35","2.0.0","279594","rx5f00rcqz","2026-02-16","7e23","null","6993847e8464cd554a5ac474","Pilot_1","3","3","4","0.20","12","0.60","4","0","12","10","","","","","","","","Treasurer","SP2",""
"","","","","","html-keyboard-response","36","2.0.0","283502","rx5f00rcqz","2026-02-16","7e23","null","6993847e8464cd554a5ac474","Pilot_1","3","3","4","0.20","12","0.60","4","0","12","10","","","","","","","","SP2","Treasurer",""
"","","","","","html-keyboard-response","37","2.0.0","287301","rx5f00rcqz","2026-02-16","7e23","null","6993847e8464cd554a5ac474","Pilot_1","3","3","4","0.20","12","0.60","4","0","12","10","","","","","","","","Treasurer","SP2",""
"","","","","","html-keyboard-response","38","2.0.0","292015","rx5f00rcqz","2026-02-16","7e23","null","6993847e8464cd554a5ac474","Pilot_1","3","3","4","0.20","12","0.60","4","0","12","10","","","","","","","","SP2","Treasurer",""
"","","","","","html-keyboard-response","39","2.0.0","296673","rx5f00rcqz","2026-02-16","7e23","null","6993847e8464cd554a5ac474","Pilot_1","3","3","4","0.20","12","0.60","4","0","12","10","","","","","","","","Treasurer","SP2",""
"","","","","","html-keyboard-response","40","2.0.0","300531","rx5f00rcqz","2026-02-16","7e23","null","6993847e8464cd554a5ac474","Pilot_1","3","3","4","0.20","12","0.60","4","0","12","10","","","","","","","","SP2","Treasurer",""
"","","","","","html-keyboard-response","41","2.0.0","304376","rx5f00rcqz","2026-02-16","7e23","null","6993847e8464cd554a5ac474","Pilot_1","3","3","4","0.20","12","0.60","4","0","12","10","","","","","","","","Treasurer","SP2",""
"","","","","","html-keyboard-response","42","2.0.0","308630","rx5f00rcqz","2026-02-16","7e23","null","6993847e8464cd554a5ac474","Pilot_1","3","3","4","0.20","12","0.60","4","0","12","10","","","","","","","","SP2","Treasurer",""
"","","","","","html-button-response","43","2.0.0","314900","rx5f00rcqz","2026-02-16","7e23","null","6993847e8464cd554a5ac474","Pilot_1","3","3","4","0.20","12","0.60","4","0","12","10","end_game","6269","<h2>Game Over</h2>
              <p style=""width: 800px; text-align: start;"">The game has ended! You earned <b>4 points</b>, which is equivalent to <b>$0.20</b>.<br><br>
                Your fellow player, Standard Player 2, earned <b>12 points</b>, which is equivalent to <b>$0.60</b>.<br><br>
                Please click the button below to continue to the next part of the study.</p>","0","","","","","",""
"","","","","","survey-text","44","2.0.0","339081","rx5f00rcqz","2026-02-16","7e23","null","6993847e8464cd554a5ac474","Pilot_1","3","3","4","0.20","12","0.60","4","0","12","10","comprehension_check","24179","","{""SP1_ball_received_T"":""4"",""SP1_ball_received_SP2"":""0"",""SP2_ball_received_T"":""12""}","","","","","",""
"","","","","","html-slider-response","45","2.0.0","399261","rx5f00rcqz","2026-02-16","7e23","null","6993847e8464cd554a5ac474","Pilot_1","3","3","4","0.20","12","0.60","4","0","12","10","","60179","
  <p style=""width: 1000px; padding: 10px"">
    You may choose to reduce SP2’s earnings by giving up some of your own earnings. This is a <u>one-time, one-sided decision</u>. This means only you make this decision; SP2 will not make a corresponding decision.<br><br>

    For every <b>$0.01</b> you give up, SP2’s earnings are reduced by <b>$0.05</b>.<br>
    For example, giving up <b>$0.03</b> reduces SP2’s earnings by <b>$0.15</b>. Choosing $0 means no change to either participant's earnings.<br>
    Earnings for either participant cannot go below <b>$0</b>.<br><br>

    You may move the slider below to see how different choices would affect both participants’ earnings. Moving the slider does not finalize your decision. Your decision is only locked in once you click 'Continue' and move on to the next task.<br><br>

    There is no correct or expected choice. Please use the slider to indicate how much of your own earnings you would like to give up in order to reduce SP2's earnings.
    </p>

  <div style=""
    display:flex;
    justify-content:center;
    gap:100px;
    margin:30px 0;
    align-items:flex-end;
  "">

    <div style=""text-align:center;"">
      <div id=""sp1-baseline"" style=""font-weight: bold; margin-bottom:6px;"">$0.00</div>
      <div id=""sp1-coins""></div>
      <div style=""margin-top:6px;"">You (SP1)</div>
    </div>

    <div style=""text-align:center;"">
      <div id=""sp2-baseline"" style=""font-weight: bold; margin-bottom:6px;"">$0.00</div>
      <div id=""sp2-coins""></div>
      <div style=""margin-top:6px;"">SP2</div>
    </div>

  </div>
  ","10","","","","","","0"
"","","","","","call-function","46","null","399261","rx5f00rcqz","2026-02-16","7e23","null","6993847e8464cd554a5ac474","Pilot_1","3","3","4","0.20","12","0.60","4","0","12","10","","","","","","","","","",""
"","","","","","survey-text","47","2.0.0","1322489","rx5f00rcqz","2026-02-16","7e23","null","6993847e8464cd554a5ac474","Pilot_1","3","3","4","0.20","12","0.60","4","0","12","10","","923225","","{""dv1_OE_game_satisfaction"":""not at all because i didn't get enough opportunities like the other player did because the treasurer intentionally threw the ball to the other player player way more times than he threw to me so that was obviously very unfair and seems very intentional and not just a accident or just a chance of it happening"",""dv1_oe_playtime_satisfaction"":""i wasn't satisfied at all because again i didn't get enough opportunities like the other player because the treasurer threw to the other players way more times than he threw to me so that was obviously very unfair and seems very intentional and not just a accident or just a chance of it happening"",""dv1_oe_earnings_satisfaction"":""it depends on if they give me the 0.10 cents but if not then yeah I'm not satisfied at all because again i didn't get enough opportunities like the other player because the treasurer threw to the other players way more times than he threw to me so that was obviously very unfair and seems very intentional and not just a accident or just a chance of it happening"",""dv1_oe_treasurer_behavior"":""i disliked his behavior because he intentionally threw to the other player more so he didn't even try to make it fair he know what he did was obviously very unfair and was very intentional on his part and not just a random accident that he make a excuse for "",""dv1_oe_sp2_behavior"":""he didn't do anything wrong he was just playing the game and didn't make the rules or choose how often he get thrown to it was all on the treasurer for intentionally throwing to him making it obviously very unfair and was very intentional on his part which ruin the game"",""dv1_oe_message_to_treasurer"":""He probably wouldn't care because he intentionally made it unfair from the beginning because he knew the rules and what he was suppose to do but instead he intentionally threw the ball to one player the whole time making it obviously very unfair and was very intentional on his part which ruin the game"",""dv1_oe_message_to_sp2"":""he probably would feel the same way if he was in my shoes because just like me and can see that the treasurer intentionally made it unfair from the beginning by intentionally throwing the ball to him the whole time making it very obvious, very unfair and was very intentional ""}","","","","","",""
"","","","","","survey-likert","48","2.0.0","1369730","rx5f00rcqz","2026-02-16","7e23","null","6993847e8464cd554a5ac474","Pilot_1","3","3","4","0.20","12","0.60","4","0","12","10","","48827","","{""dv2_praising"":3,""dv2_insulting"":0,""dv2_avoiding"":0,""dv2_become_friends"":3,""dv2_unkind_things"":0,""dv2_helping"":5,""dv2_complementing"":5,""dv2_favor"":5,""dv2_invite_fun"":5,""dv2_ignore"":0}","[0,1,2,3,4,5,6,7,8,9]","","","","",""
"","","","","","survey-likert","49","2.0.0","1419493","rx5f00rcqz","2026-02-16","7e23","null","6993847e8464cd554a5ac474","Pilot_1","3","3","4","0.20","12","0.60","4","0","12","10","","49761","","{""dv3_state_envy"":0,""dv3_state_jealous"":0,""dv3_state_bitter"":0,""dv3_state_resentful"":0,""dv3_state_happy"":0,""dv3_state_compassionate"":0,""dv3_state_surprised"":0,""dv3_state_grateful"":0,""dv3_state_thankful"":0,""dv3_state_sad"":0,""dv3_state_upset"":0,""dv3_state_disappointed"":0,""dv3_state_annoyed"":0,""dv3_state_angry"":0,""dv3_state_shame"":0,""dv3_state_contempt"":3,""dv3_state_joy"":0,""dv3_state_irritated"":0}","[0,1,2,3,4,5,6,7,8,9,10,11,12,13,14,15,16,17]","","","","",""
"","","","","","survey-likert","50","2.0.0","1452019","rx5f00rcqz","2026-02-16","7e23","null","6993847e8464cd554a5ac474","Pilot_1","3","3","4","0.20","12","0.60","4","0","12","10","","32525","","{""dv3a_understood_rules"":6,""dv3a_game_unfair"":6,""dv3a_results_happy"":0,""dv3a_felt_excluded"":3,""dv3a_felt_bad_others"":0,""dv3a_felt_ignored"":6,""dv3a_performed_well"":0,""dv3a_game_different"":6,""dv3a_wish_received_more"":6,""dv3a_felt_malicious_envy"":0,""dv3a_attention_check_1"":1}","[8,0,1,6,10,4,9,2,3,7,5]","","","","",""
"","","","","","survey-likert","51","2.0.0","1477342","rx5f00rcqz","2026-02-16","7e23","null","6993847e8464cd554a5ac474","Pilot_1","3","3","4","0.20","12","0.60","4","0","12","10","","25321","","{""dv3b_sp2_rival"":0,""dv3b_sp2_competition"":4,""dv3b_sp2_take_winnings"":0,""dv3b_sp2_betrayal"":0,""dv3b_sp2_closeness"":0,""dv3b_sp2_shared_goals"":4,""dv3b_sp2_unfiar"":0,""dv3b_sp2_deservingness"":0}","[7,5,3,1,0,6,2,4]","","","","",""
"","","","","","survey-likert","52","2.0.0","1490449","rx5f00rcqz","2026-02-16","7e23","null","6993847e8464cd554a5ac474","Pilot_1","3","3","4","0.20","12","0.60","4","0","12","10","","13107","","{""dv3b_treasurer_rival"":6,""dv3b_treasurer_competition"":6,""dv3c_treasurer_unfair"":6,""dv3c_treasurer_betrayal"":6,""dv3c_treasurer_closeness"":0,""dv3b_treasurer_shared_goals"":0}","[5,3,2,1,0,4]","","","","",""
"","","","","","survey-likert","53","2.0.0","1524176","rx5f00rcqz","2026-02-16","7e23","null","6993847e8464cd554a5ac474","Pilot_1","3","3","4","0.20","12","0.60","4","0","12","10","","33726","","{""dv4_rain_on_parade"":0,""dv4_trade_places_rev"":6,""dv4_angry_others_succeed"":0,""dv4_happy_friends_succeed_rev"":4,""dv4_content_with_self_rev"":4,""dv4_happy_others_succeed_rev"":2,""dv4_pain_friends_succeed"":0,""dv4_prefer_stranger_win"":0}","[0,1,2,3,4,5,6,7]","","","","",""
"","","","","","survey-multi-choice","54","2.1.0","1539129","rx5f00rcqz","2026-02-16","7e23","null","6993847e8464cd554a5ac474","Pilot_1","3","3","4","0.20","12","0.60","4","0","12","10","","14952","","{""demo_attention_check_2"":""1000+"",""demo_sex"":""Male"",""demo_gender"":""Man"",""demo_education"":""High school diploma or equivalent (including GED)"",""demo_social_class"":""3 = middle"",""demo_marital_status"":""Never married""}","[0,1,2,3,4,5]","","","","",""
"","","","","","survey-text","55","2.0.0","1542607","rx5f00rcqz","2026-02-16","7e23","null","6993847e8464cd554a5ac474","Pilot_1","3","3","4","0.20","12","0.60","4","0","12","10","","3477","","{""demo_age"":""28""}","","","","","",""
"","","","","","survey-multi-select","56","null","1544555","rx5f00rcqz","2026-02-16","7e23","null","6993847e8464cd554a5ac474","Pilot_1","3","3","4","0.20","12","0.60","4","0","12","10","","1947","","{""demo_race"":[""Black or African American""]}","[0]","","","","",""
"","","","","","survey-likert","57","2.0.0","1549909","rx5f00rcqz","2026-02-16","7e23","null","6993847e8464cd554a5ac474","Pilot_1","3","3","4","0.20","12","0.60","4","0","12","10","","5354","","{""attention_check_3"":4}","[0]","","","","",""
"","","","","","survey-text","58","2.0.0","1584818","rx5f00rcqz","2026-02-16","7e23","null","6993847e8464cd554a5ac474","Pilot_1","3","3","4","0.20","12","0.60","4","0","12","10","","34908","","{""funnel1"":""it was interesting"",""funnel2"":""whether we feel envious towards the other player "",""funnel3"":""no everything was good""}","","","","","",""
