"success","timeout","failed_images","failed_audio","failed_video","trial_type","trial_index","plugin_version","time_elapsed","subject_id","experiment_date","prolific_id_last4","study_id","session_id","version","condition","schedule","sp1Points","sp1Dollars","sp2Points","sp2Dollars","SP1_ball_received_T","SP1_ball_received_SP2","SP2_ball_received_T","burn_amount","task","rt","stimulus","response","question_order","correct","value","from","to","slider_start"
"true","false","[]","[]","[]","preload","0","2.0.0","100","uq61wqw7tu","2026-02-13","e83c","null","698f8b71e92ef8721d40c09f","Pilot_1","3","3","3","0.15","12","0.60","4","0","12","0","","","","","","","","","",""
"","","","","","html-button-response","1","2.0.0","4024","uq61wqw7tu","2026-02-13","e83c","null","698f8b71e92ef8721d40c09f","Pilot_1","3","3","3","0.15","12","0.60","4","0","12","0","consent","3925","
    <p style = ""text-align: start; width: 900px""> You are being invited to participate in a research study titled: The Influence of Social Interactions on Decision Making.<br><br>
        This study is being done by Michael McCullough, PhD (Principal Investigator) from UC San Diego. You were selected to participate in this study because you are a representative member of the society the investigators wish to study. 
        The purpose of this research study is to explore how nonverbal social interactions affect the way people talk to themselves. Your participation in this research should last no longer than 30 minutes. If you agree to take part in this study, you will be asked to complete several surveys that ask about your feelings, beliefs, judgments, and personal background.
        Your participation in this study is completely voluntary and you can withdraw at any time. Choosing not to participate or withdrawing will result in no penalty or loss of benefits to which you are entitled. Research sometimes requires that information regarding its purpose not be shared with the research participants because its knowledge could impact the results of the research. 
        Note that none of the aspects of the research being withheld are reasonably expected to affect your willingness to take part. While the tasks you will be asked to perform for this research have been explained, the full intent of the research will not be provided until the completion of the study. At that time, you will have the opportunity to ask questions, including about the purpose of the study and the procedures used, and withdraw your data if you so choose.
        If you have questions about this project or if you have a research-related problem, you may contact the researcher(s), Michael McCullough, Ph.D., Department of Psychology, University of California, San Diego, 9500 Gilman Drive, La Jolla, CA 92093-0109 and by email at memccullough@ucsd.edu. If you have any questions concerning your rights as a research subject, you may contact the UC San Diego Office of IRB Administration at irb@ucsd.edu or 858-246-4777.
        By participating in this research, you are indicating that you are at least 18 years old, have read this consent form, and agree to participate in this research study. Please keep this consent form for your records.</p>
        <p>Do you consent?</p>","0","","","","","",""
"","","","","","html-button-response","2","2.0.0","14864","uq61wqw7tu","2026-02-13","e83c","null","698f8b71e92ef8721d40c09f","Pilot_1","3","3","3","0.15","12","0.60","4","0","12","0","study_description","10842","<h2>Study Description</h2>
                 <p style=""width: 900px; text-align: start"">Thank you for agreeing to participate in this study! This study seeks to understand how social interactions influence our decision-making processes.<br><br>
                 In this study, you will play a virtual ball-tossing game with two other participants. The game is designed to simulate social interactions and observe how they affect how you make decisions towards other people.<br><br>
                 The instructions for the game will be provided in the next section. To ensure that everyone understands the rules, there will be a short quiz. If you get any answers wrong, don't worry—you will have the opportunity to review the instructions and retake the quiz until you get all the answers correct.<br><br>
                 Please pay close attention to the game and try to engage with the other participants as naturally as possible.</p>","0","","","","","",""
"","","","","","html-button-response","3","2.0.0","50701","uq61wqw7tu","2026-02-13","e83c","null","698f8b71e92ef8721d40c09f","Pilot_1","3","3","3","0.15","12","0.60","4","0","12","0","game_instructions","35838","<h2>Game Instructions</h2>
                <p style=""width: 1000px; text-align: start"">In Cyberball there are three players: Standard Player 1 (SP1), Standard Player 2 (SP2), and a Treasurer. <b>You are SP1</b>.
                <br><br>
                Your objective in Cyberball is to earn points by tossing a ball. At the end of the game, the points will be converted into a monetary bonus. Each point you earn is worth $0.05. To help you keep track of points, there will be a scoreboard displayed in the top-right corner of the screen during the game.<br>
                <br>
                The way the game works is that SP1 and SP2 individually earn points by tossing the ball to the Treasurer. Each time that SP1 or SP2 tossed the ball to the Treasurer, <u>the person who tossed the ball earns one point</u>. In other words, SP1 and SP2 earn points when they get the chance to toss the ball to the Treasurer. Of course, you could toss the ball to whomever you want, but you will only earn points when you pass the ball to the Treasurer.
                So, for example, if SP1 tosses the ball to the Treasurer, SP1 will earn one point and SP2 will not earn any points. Likewise, if SP2 tosses the ball to the Treasurer, SP2 will earn one point and SP1 will not earn anything. 
                <br><br>
                Keep in mind that SP1 and SP2 cannot earn points by tossing the ball to each other.
                SP1 and SP2 can only earn points by tossing the ball to the Treasurer. So, for example, if SP1 tosses the ball to SP2, neither SP1 or SP2 will earn any points. But whoever then throws the ball to the Treasurer will earn a point.</p>","0","","","","","",""
"","","","","","survey-multi-choice","4","2.1.0","58353","uq61wqw7tu","2026-02-13","e83c","null","698f8b71e92ef8721d40c09f","Pilot_1","3","3","3","0.15","12","0.60","4","0","12","0","comprehension_quiz","7648","","{""role"":""Standard Player 1 (SP1)"",""points"":""By tossing the ball to the Treasurer"",""passing"":""Yes"",""passing_points"":""0 points""}","[0,1,2,3]","true","","","",""
"","","","","","html-button-response","5","2.0.0","60397","uq61wqw7tu","2026-02-13","e83c","null","698f8b71e92ef8721d40c09f","Pilot_1","3","3","3","0.15","12","0.60","4","0","12","0","","2040","<p style=""color:green; font-weight:bold"">Great! You have answered all questions correctly. Let's move on to the game.</p><p>If you need a refresh on the instructions, please click the button <i>Open Cyberball Rules</i> on the top left corner of your screen.</p>","0","","","","","",""
"","","","","","call-function","6","null","60399","uq61wqw7tu","2026-02-13","e83c","null","698f8b71e92ef8721d40c09f","Pilot_1","3","3","3","0.15","12","0.60","4","0","12","0","","","","","","","","","",""
"","","","","","call-function","7","null","60402","uq61wqw7tu","2026-02-13","e83c","null","698f8b71e92ef8721d40c09f","Pilot_1","3","3","3","0.15","12","0.60","4","0","12","0","","","","","","","","","",""
"","","","","","html-keyboard-response","8","2.0.0","64406","uq61wqw7tu","2026-02-13","e83c","null","698f8b71e92ef8721d40c09f","Pilot_1","3","3","3","0.15","12","0.60","4","0","12","0","","","","","","","","Treasurer","SP2",""
"","","","","","html-keyboard-response","9","2.0.0","69522","uq61wqw7tu","2026-02-13","e83c","null","698f8b71e92ef8721d40c09f","Pilot_1","3","3","3","0.15","12","0.60","4","0","12","0","","","","","","","","SP2","Treasurer",""
"","","","","","html-keyboard-response","10","2.0.0","74271","uq61wqw7tu","2026-02-13","e83c","null","698f8b71e92ef8721d40c09f","Pilot_1","3","3","3","0.15","12","0.60","4","0","12","0","","","","","","","","Treasurer","SP1",""
"","","","","","html-keyboard-response","11","2.0.0","77090","uq61wqw7tu","2026-02-13","e83c","null","698f8b71e92ef8721d40c09f","Pilot_1","3","3","3","0.15","12","0.60","4","0","12","0","","","","","","","","SP1","Treasurer",""
"","","","","","html-keyboard-response","12","2.0.0","81306","uq61wqw7tu","2026-02-13","e83c","null","698f8b71e92ef8721d40c09f","Pilot_1","3","3","3","0.15","12","0.60","4","0","12","0","","","","","","","","Treasurer","SP2",""
"","","","","","html-keyboard-response","13","2.0.0","86188","uq61wqw7tu","2026-02-13","e83c","null","698f8b71e92ef8721d40c09f","Pilot_1","3","3","3","0.15","12","0.60","4","0","12","0","","","","","","","","SP2","Treasurer",""
"","","","","","html-keyboard-response","14","2.0.0","90905","uq61wqw7tu","2026-02-13","e83c","null","698f8b71e92ef8721d40c09f","Pilot_1","3","3","3","0.15","12","0.60","4","0","12","0","","","","","","","","Treasurer","SP2",""
"","","","","","html-keyboard-response","15","2.0.0","95940","uq61wqw7tu","2026-02-13","e83c","null","698f8b71e92ef8721d40c09f","Pilot_1","3","3","3","0.15","12","0.60","4","0","12","0","","","","","","","","SP2","Treasurer",""
"","","","","","html-keyboard-response","16","2.0.0","99338","uq61wqw7tu","2026-02-13","e83c","null","698f8b71e92ef8721d40c09f","Pilot_1","3","3","3","0.15","12","0.60","4","0","12","0","","","","","","","","Treasurer","SP1",""
"","","","","","html-keyboard-response","17","2.0.0","101739","uq61wqw7tu","2026-02-13","e83c","null","698f8b71e92ef8721d40c09f","Pilot_1","3","3","3","0.15","12","0.60","4","0","12","0","","","","","","","","SP1","Treasurer",""
"","","","","","html-keyboard-response","18","2.0.0","105606","uq61wqw7tu","2026-02-13","e83c","null","698f8b71e92ef8721d40c09f","Pilot_1","3","3","3","0.15","12","0.60","4","0","12","0","","","","","","","","Treasurer","SP2",""
"","","","","","html-keyboard-response","19","2.0.0","109506","uq61wqw7tu","2026-02-13","e83c","null","698f8b71e92ef8721d40c09f","Pilot_1","3","3","3","0.15","12","0.60","4","0","12","0","","","","","","","","SP2","Treasurer",""
"","","","","","html-keyboard-response","20","2.0.0","114355","uq61wqw7tu","2026-02-13","e83c","null","698f8b71e92ef8721d40c09f","Pilot_1","3","3","3","0.15","12","0.60","4","0","12","0","","","","","","","","Treasurer","SP2",""
"","","","","","html-keyboard-response","21","2.0.0","117939","uq61wqw7tu","2026-02-13","e83c","null","698f8b71e92ef8721d40c09f","Pilot_1","3","3","3","0.15","12","0.60","4","0","12","0","","","","","","","","SP2","Treasurer",""
"","","","","","html-keyboard-response","22","2.0.0","122722","uq61wqw7tu","2026-02-13","e83c","null","698f8b71e92ef8721d40c09f","Pilot_1","3","3","3","0.15","12","0.60","4","0","12","0","","","","","","","","Treasurer","SP1",""
"","","","","","html-keyboard-response","23","2.0.0","125872","uq61wqw7tu","2026-02-13","e83c","null","698f8b71e92ef8721d40c09f","Pilot_1","3","3","3","0.15","12","0.60","4","0","12","0","","","","","","","","SP1","SP2",""
"","","","","","html-keyboard-response","24","2.0.0","130638","uq61wqw7tu","2026-02-13","e83c","null","698f8b71e92ef8721d40c09f","Pilot_1","3","3","3","0.15","12","0.60","4","0","12","0","","","","","","","","Treasurer","SP2",""
"","","","","","html-keyboard-response","25","2.0.0","135454","uq61wqw7tu","2026-02-13","e83c","null","698f8b71e92ef8721d40c09f","Pilot_1","3","3","3","0.15","12","0.60","4","0","12","0","","","","","","","","SP2","Treasurer",""
"","","","","","html-keyboard-response","26","2.0.0","139422","uq61wqw7tu","2026-02-13","e83c","null","698f8b71e92ef8721d40c09f","Pilot_1","3","3","3","0.15","12","0.60","4","0","12","0","","","","","","","","Treasurer","SP2",""
"","","","","","html-keyboard-response","27","2.0.0","143422","uq61wqw7tu","2026-02-13","e83c","null","698f8b71e92ef8721d40c09f","Pilot_1","3","3","3","0.15","12","0.60","4","0","12","0","","","","","","","","SP2","Treasurer",""
"","","","","","html-keyboard-response","28","2.0.0","148504","uq61wqw7tu","2026-02-13","e83c","null","698f8b71e92ef8721d40c09f","Pilot_1","3","3","3","0.15","12","0.60","4","0","12","0","","","","","","","","Treasurer","SP1",""
"","","","","","html-keyboard-response","29","2.0.0","151072","uq61wqw7tu","2026-02-13","e83c","null","698f8b71e92ef8721d40c09f","Pilot_1","3","3","3","0.15","12","0.60","4","0","12","0","","","","","","","","SP1","Treasurer",""
"","","","","","html-keyboard-response","30","2.0.0","154705","uq61wqw7tu","2026-02-13","e83c","null","698f8b71e92ef8721d40c09f","Pilot_1","3","3","3","0.15","12","0.60","4","0","12","0","","","","","","","","Treasurer","SP2",""
"","","","","","html-keyboard-response","31","2.0.0","159455","uq61wqw7tu","2026-02-13","e83c","null","698f8b71e92ef8721d40c09f","Pilot_1","3","3","3","0.15","12","0.60","4","0","12","0","","","","","","","","SP2","Treasurer",""
"","","","","","html-keyboard-response","32","2.0.0","164105","uq61wqw7tu","2026-02-13","e83c","null","698f8b71e92ef8721d40c09f","Pilot_1","3","3","3","0.15","12","0.60","4","0","12","0","","","","","","","","Treasurer","SP2",""
"","","","","","html-keyboard-response","33","2.0.0","167772","uq61wqw7tu","2026-02-13","e83c","null","698f8b71e92ef8721d40c09f","Pilot_1","3","3","3","0.15","12","0.60","4","0","12","0","","","","","","","","SP2","Treasurer",""
"","","","","","html-keyboard-response","34","2.0.0","172271","uq61wqw7tu","2026-02-13","e83c","null","698f8b71e92ef8721d40c09f","Pilot_1","3","3","3","0.15","12","0.60","4","0","12","0","","","","","","","","Treasurer","SP2",""
"","","","","","html-keyboard-response","35","2.0.0","175622","uq61wqw7tu","2026-02-13","e83c","null","698f8b71e92ef8721d40c09f","Pilot_1","3","3","3","0.15","12","0.60","4","0","12","0","","","","","","","","SP2","Treasurer",""
"","","","","","html-keyboard-response","36","2.0.0","180022","uq61wqw7tu","2026-02-13","e83c","null","698f8b71e92ef8721d40c09f","Pilot_1","3","3","3","0.15","12","0.60","4","0","12","0","","","","","","","","Treasurer","SP2",""
"","","","","","html-keyboard-response","37","2.0.0","184838","uq61wqw7tu","2026-02-13","e83c","null","698f8b71e92ef8721d40c09f","Pilot_1","3","3","3","0.15","12","0.60","4","0","12","0","","","","","","","","SP2","Treasurer",""
"","","","","","html-keyboard-response","38","2.0.0","189137","uq61wqw7tu","2026-02-13","e83c","null","698f8b71e92ef8721d40c09f","Pilot_1","3","3","3","0.15","12","0.60","4","0","12","0","","","","","","","","Treasurer","SP2",""
"","","","","","html-keyboard-response","39","2.0.0","192805","uq61wqw7tu","2026-02-13","e83c","null","698f8b71e92ef8721d40c09f","Pilot_1","3","3","3","0.15","12","0.60","4","0","12","0","","","","","","","","SP2","Treasurer",""
"","","","","","html-button-response","40","2.0.0","196509","uq61wqw7tu","2026-02-13","e83c","null","698f8b71e92ef8721d40c09f","Pilot_1","3","3","3","0.15","12","0.60","4","0","12","0","end_game","3700","<h2>Game Over</h2>
              <p style=""width: 800px; text-align: start;"">The game has ended! You earned <b>3 points</b>, which is equivalent to <b>$0.15</b>.<br><br>
                Your fellow player, Standard Player 2, earned <b>12 points</b>, which is equivalent to <b>$0.60</b>.<br><br>
                Please click the button below to continue to the next part of the study.</p>","0","","","","","",""
"","","","","","survey-text","41","2.0.0","206922","uq61wqw7tu","2026-02-13","e83c","null","698f8b71e92ef8721d40c09f","Pilot_1","3","3","3","0.15","12","0.60","4","0","12","0","comprehension_check","10388","","{""SP1_ball_received_T"":""4"",""SP1_ball_received_SP2"":""0"",""SP2_ball_received_T"":""12""}","","","","","",""
"","","","","","html-slider-response","42","2.0.0","244471","uq61wqw7tu","2026-02-13","e83c","null","698f8b71e92ef8721d40c09f","Pilot_1","3","3","3","0.15","12","0.60","4","0","12","0","","37544","
  <p style=""width: 1000px; padding: 10px"">
    You may choose to reduce SP2’s earnings by giving up some of your own earnings. This is a <u>one-time, one-sided decision</u>. This means only you make this decision; SP2 will not make a corresponding decision.<br><br>

    For every <b>$0.01</b> you give up, SP2’s earnings are reduced by <b>$0.05</b>.<br>
    For example, giving up <b>$0.03</b> reduces SP2’s earnings by <b>$0.15</b>. Choosing $0 means no change to either participant's earnings.<br>
    Earnings for either participant cannot go below <b>$0</b>.<br><br>

    You may move the slider below to see how different choices would affect both participants’ earnings. Moving the slider does not finalize your decision. Your decision is only locked in once you click 'Continue' and move on to the next task.<br><br>

    There is no correct or expected choice. Please use the slider to indicate how much of your own earnings you would like to give up in order to reduce SP2's earnings.
    </p>

  <div style=""
    display:flex;
    justify-content:center;
    gap:100px;
    margin:30px 0;
    align-items:flex-end;
  "">

    <div style=""text-align:center;"">
      <div id=""sp1-baseline"" style=""font-weight: bold; margin-bottom:6px;"">$0.00</div>
      <div id=""sp1-coins""></div>
      <div style=""margin-top:6px;"">You (SP1)</div>
    </div>

    <div style=""text-align:center;"">
      <div id=""sp2-baseline"" style=""font-weight: bold; margin-bottom:6px;"">$0.00</div>
      <div id=""sp2-coins""></div>
      <div style=""margin-top:6px;"">SP2</div>
    </div>

  </div>
  ","0","","","","","","0"
"","","","","","call-function","43","null","244473","uq61wqw7tu","2026-02-13","e83c","null","698f8b71e92ef8721d40c09f","Pilot_1","3","3","3","0.15","12","0.60","4","0","12","0","","","","","","","","","",""
"","","","","","survey-text","44","2.0.0","708024","uq61wqw7tu","2026-02-13","e83c","null","698f8b71e92ef8721d40c09f","Pilot_1","3","3","3","0.15","12","0.60","4","0","12","0","","463547","","{""dv1_OE_game_satisfaction"":""I was not very satisfied with the game. I felt that the ball was passed way more to SP2 and not me. I even passed the ball to SP2 once to see if they would pass it to me on their next turn, but they did not. I wish that the treasurer would have passed it equally to both of us. "",""dv1_oe_playtime_satisfaction"":""No. The treasurer did not pass the ball to me even half as much as they passed it to SP2. SP2 got to play much more than I did. I felt bored as I was watching the ball go from the treasurer to SP2, but only four times it went to me. "",""dv1_oe_earnings_satisfaction"":""No. I only got four opportunities to get a bonus. SP2 got way more opportunities than me and made more money than me. I did not decrease SP2's earnings because I felt that it would not be fair for me to take from what they earned just because the treasurer did not pass equally to both of us. "",""dv1_oe_treasurer_behavior"":""I very much disliked how the treasurer behaved during the game. They passed to SP2 much more often than they passed to me, and I thought the we would both be getting the ball passed to us an equal amount. I wish the treasurer passed the ball to both of us an equal amount. "",""dv1_oe_sp2_behavior"":""Although I did not like the behaviour of SP2, I do not think they are at fault for the situation I was put it. SP2 was likely also told that they would receive money each time they passed the ball to the treasurer, so I do not blame them for maximizing their payout. "",""dv1_oe_message_to_treasurer"":""I would tell the treasurer that they did not give me a fair opportunity to succeed in the game. I would tell them that next time someone plays the game, they should pass to both players equally. I would tell them that they made me feel upset by not passing the ball t me as frequently. "",""dv1_oe_message_to_sp2"":""I would congratulate SP2 for their earnings and tell them that I do not blame them for how they played the game. They were just maximizing their payout by passing the ball as much as possible to the treasurer. I would, however, tell them that I wish they reciprocated my act of kindness by passing the ball back to me after I passed it to them. ""}","","","","","",""
"","","","","","survey-likert","45","2.0.0","743073","uq61wqw7tu","2026-02-13","e83c","null","698f8b71e92ef8721d40c09f","Pilot_1","3","3","3","0.15","12","0.60","4","0","12","0","","35045","","{""dv2_praising"":3,""dv2_insulting"":0,""dv2_avoiding"":4,""dv2_become_friends"":4,""dv2_unkind_things"":0,""dv2_helping"":5,""dv2_complementing"":4,""dv2_favor"":2,""dv2_invite_fun"":4,""dv2_ignore"":2}","[0,1,2,3,4,5,6,7,8,9]","","","","",""
"","","","","","survey-likert","46","2.0.0","778177","uq61wqw7tu","2026-02-13","e83c","null","698f8b71e92ef8721d40c09f","Pilot_1","3","3","3","0.15","12","0.60","4","0","12","0","","35089","","{""dv3_state_envy"":3,""dv3_state_jealous"":5,""dv3_state_bitter"":4,""dv3_state_resentful"":4,""dv3_state_happy"":2,""dv3_state_compassionate"":2,""dv3_state_surprised"":4,""dv3_state_grateful"":2,""dv3_state_thankful"":2,""dv3_state_sad"":4,""dv3_state_upset"":4,""dv3_state_disappointed"":4,""dv3_state_annoyed"":4,""dv3_state_angry"":2,""dv3_state_shame"":1,""dv3_state_contempt"":1,""dv3_state_joy"":2,""dv3_state_irritated"":4}","[0,1,2,3,4,5,6,7,8,9,10,11,12,13,14,15,16,17]","","","","",""
"","","","","","survey-likert","47","2.0.0","805364","uq61wqw7tu","2026-02-13","e83c","null","698f8b71e92ef8721d40c09f","Pilot_1","3","3","3","0.15","12","0.60","4","0","12","0","","27173","","{""dv3a_wish_received_more"":6,""dv3a_results_happy"":0,""dv3a_performed_well"":4,""dv3a_game_different"":6,""dv3a_understood_rules"":6,""dv3a_felt_excluded"":6,""dv3a_felt_ignored"":6,""dv3a_game_unfair"":6,""dv3a_felt_bad_others"":0,""dv3a_felt_malicious_envy"":0,""dv3a_attention_check_1"":1}","[3,1,9,2,8,6,4,0,10,7,5]","","","","",""
"","","","","","survey-likert","48","2.0.0","830877","uq61wqw7tu","2026-02-13","e83c","null","698f8b71e92ef8721d40c09f","Pilot_1","3","3","3","0.15","12","0.60","4","0","12","0","","25508","","{""dv3b_sp2_competition"":5,""dv3b_sp2_take_winnings"":4,""dv3b_sp2_closeness"":1,""dv3b_sp2_deservingness"":2,""dv3b_sp2_rival"":4,""dv3b_sp2_betrayal"":2,""dv3b_sp2_unfiar"":1,""dv3b_sp2_shared_goals"":6}","[5,3,0,4,7,1,2,6]","","","","",""
"","","","","","survey-likert","49","2.0.0","842086","uq61wqw7tu","2026-02-13","e83c","null","698f8b71e92ef8721d40c09f","Pilot_1","3","3","3","0.15","12","0.60","4","0","12","0","","11204","","{""dv3b_treasurer_rival"":6,""dv3c_treasurer_betrayal"":6,""dv3b_treasurer_competition"":4,""dv3c_treasurer_unfair"":6,""dv3b_treasurer_shared_goals"":0,""dv3c_treasurer_closeness"":0}","[5,1,3,2,4,0]","","","","",""
"","","","","","survey-likert","50","2.0.0","864097","uq61wqw7tu","2026-02-13","e83c","null","698f8b71e92ef8721d40c09f","Pilot_1","3","3","3","0.15","12","0.60","4","0","12","0","","21998","","{""dv4_rain_on_parade"":0,""dv4_trade_places_rev"":5,""dv4_angry_others_succeed"":0,""dv4_happy_friends_succeed_rev"":6,""dv4_content_with_self_rev"":5,""dv4_happy_others_succeed_rev"":6,""dv4_pain_friends_succeed"":0,""dv4_prefer_stranger_win"":0}","[0,1,2,3,4,5,6,7]","","","","",""
"","","","","","survey-multi-choice","51","2.1.0","883669","uq61wqw7tu","2026-02-13","e83c","null","698f8b71e92ef8721d40c09f","Pilot_1","3","3","3","0.15","12","0.60","4","0","12","0","","19560","","{""demo_attention_check_2"":""1000+"",""demo_sex"":""Female"",""demo_gender"":""Woman"",""demo_education"":""Bachelor's degree (4-years)"",""demo_social_class"":""3 = middle"",""demo_marital_status"":""Never married""}","[0,1,2,3,4,5]","","","","",""
"","","","","","survey-text","52","2.0.0","886321","uq61wqw7tu","2026-02-13","e83c","null","698f8b71e92ef8721d40c09f","Pilot_1","3","3","3","0.15","12","0.60","4","0","12","0","","2636","","{""demo_age"":""22""}","","","","","",""
"","","","","","survey-multi-select","53","null","889200","uq61wqw7tu","2026-02-13","e83c","null","698f8b71e92ef8721d40c09f","Pilot_1","3","3","3","0.15","12","0.60","4","0","12","0","","2875","","{""demo_race"":[""White""]}","[0]","","","","",""
"","","","","","survey-likert","54","2.0.0","893937","uq61wqw7tu","2026-02-13","e83c","null","698f8b71e92ef8721d40c09f","Pilot_1","3","3","3","0.15","12","0.60","4","0","12","0","","4728","","{""attention_check_3"":4}","[0]","","","","",""
"","","","","","survey-text","55","2.0.0","912866","uq61wqw7tu","2026-02-13","e83c","null","698f8b71e92ef8721d40c09f","Pilot_1","3","3","3","0.15","12","0.60","4","0","12","0","","18911","","{""funnel1"":""perceptions of fairness "",""funnel2"":""how people would react to being excluded in a game "",""funnel3"":""""}","","","","","",""
