"success","timeout","failed_images","failed_audio","failed_video","trial_type","trial_index","plugin_version","time_elapsed","subject_id","experiment_date","prolific_id_last4","study_id","session_id","version","condition","schedule","sp1Points","sp1Dollars","sp2Points","sp2Dollars","SP1_ball_received_T","SP1_ball_received_SP2","SP2_ball_received_T","burn_amount","task","rt","stimulus","response","question_order","correct","value","from","to","slider_start"
"true","false","[]","[]","[]","preload","0","2.0.0","34","w9copb146r","2026-02-22","1a5c","null","699b84ef23e1b5c7977fbe13","Pilot_1","3","3","4","0.20","12","0.60","4","0","12","0","","","","","","","","","",""
"","","","","","html-button-response","1","2.0.0","3918","w9copb146r","2026-02-22","1a5c","null","699b84ef23e1b5c7977fbe13","Pilot_1","3","3","4","0.20","12","0.60","4","0","12","0","consent","3883","
    <p style = ""text-align: start; width: 900px""> You are being invited to participate in a research study titled: The Influence of Social Interactions on Decision Making.<br><br>
        This study is being done by Michael McCullough, PhD (Principal Investigator) from UC San Diego. You were selected to participate in this study because you are a representative member of the society the investigators wish to study. 
        The purpose of this research study is to explore how nonverbal social interactions affect the way people talk to themselves. Your participation in this research should last no longer than 30 minutes. If you agree to take part in this study, you will be asked to complete several surveys that ask about your feelings, beliefs, judgments, and personal background.
        Your participation in this study is completely voluntary and you can withdraw at any time. Choosing not to participate or withdrawing will result in no penalty or loss of benefits to which you are entitled. Research sometimes requires that information regarding its purpose not be shared with the research participants because its knowledge could impact the results of the research. 
        Note that none of the aspects of the research being withheld are reasonably expected to affect your willingness to take part. While the tasks you will be asked to perform for this research have been explained, the full intent of the research will not be provided until the completion of the study. At that time, you will have the opportunity to ask questions, including about the purpose of the study and the procedures used, and withdraw your data if you so choose.
        If you have questions about this project or if you have a research-related problem, you may contact the researcher(s), Michael McCullough, Ph.D., Department of Psychology, University of California, San Diego, 9500 Gilman Drive, La Jolla, CA 92093-0109 and by email at memccullough@ucsd.edu. If you have any questions concerning your rights as a research subject, you may contact the UC San Diego Office of IRB Administration at irb@ucsd.edu or 858-246-4777.
        By participating in this research, you are indicating that you are at least 18 years old, have read this consent form, and agree to participate in this research study. Please keep this consent form for your records.</p>
        <p>Do you consent?</p>","0","","","","","",""
"","","","","","html-button-response","2","2.0.0","10094","w9copb146r","2026-02-22","1a5c","null","699b84ef23e1b5c7977fbe13","Pilot_1","3","3","4","0.20","12","0.60","4","0","12","0","study_description","6175","<h2>Study Description</h2>
                 <p style=""width: 900px; text-align: start"">Thank you for agreeing to participate in this study! This study seeks to understand how social interactions influence our decision-making processes.<br><br>
                 In this study, you will play a virtual ball-tossing game with two other participants. The game is designed to simulate social interactions and observe how they affect how you make decisions towards other people.<br><br>
                 The instructions for the game will be provided in the next section. To ensure that everyone understands the rules, there will be a short quiz. If you get any answers wrong, don't worry—you will have the opportunity to review the instructions and retake the quiz until you get all the answers correct.<br><br>
                 Please pay close attention to the game and try to engage with the other participants as naturally as possible.</p>","0","","","","","",""
"","","","","","html-button-response","3","2.0.0","42548","w9copb146r","2026-02-22","1a5c","null","699b84ef23e1b5c7977fbe13","Pilot_1","3","3","4","0.20","12","0.60","4","0","12","0","game_instructions","32455","<h2>Game Instructions</h2>
                <p style=""width: 1000px; text-align: start"">In Cyberball there are three players: Standard Player 1 (SP1), Standard Player 2 (SP2), and a Treasurer. <b>You are SP1</b>.
                <br><br>
                Your objective in Cyberball is to earn points by tossing a ball. At the end of the game, the points will be converted into a monetary bonus. Each point you earn is worth $0.05. To help you keep track of points, there will be a scoreboard displayed in the top-right corner of the screen during the game.<br>
                <br>
                The way the game works is that SP1 and SP2 individually earn points by tossing the ball to the Treasurer. Each time that SP1 or SP2 tossed the ball to the Treasurer, <u>the person who tossed the ball earns one point</u>. In other words, SP1 and SP2 earn points when they get the chance to toss the ball to the Treasurer. Of course, you could toss the ball to whomever you want, but you will only earn points when you pass the ball to the Treasurer.
                So, for example, if SP1 tosses the ball to the Treasurer, SP1 will earn one point and SP2 will not earn any points. Likewise, if SP2 tosses the ball to the Treasurer, SP2 will earn one point and SP1 will not earn anything. 
                <br><br>
                Keep in mind that SP1 and SP2 cannot earn points by tossing the ball to each other.
                SP1 and SP2 can only earn points by tossing the ball to the Treasurer. So, for example, if SP1 tosses the ball to SP2, neither SP1 or SP2 will earn any points. But whoever then throws the ball to the Treasurer will earn a point.</p>","0","","","","","",""
"","","","","","survey-multi-choice","4","2.1.0","51944","w9copb146r","2026-02-22","1a5c","null","699b84ef23e1b5c7977fbe13","Pilot_1","3","3","4","0.20","12","0.60","4","0","12","0","comprehension_quiz","9394","","{""role"":""Standard Player 1 (SP1)"",""points"":""By tossing the ball to the Treasurer"",""passing"":""Yes"",""passing_points"":""0 points""}","[0,1,2,3]","true","","","",""
"","","","","","html-button-response","5","2.0.0","55095","w9copb146r","2026-02-22","1a5c","null","699b84ef23e1b5c7977fbe13","Pilot_1","3","3","4","0.20","12","0.60","4","0","12","0","","3150","<p style=""color:green; font-weight:bold"">Great! You have answered all questions correctly. Let's move on to the game.</p><p>If you need a refresh on the instructions, please click the button <i>Open Cyberball Rules</i> on the top left corner of your screen.</p>","0","","","","","",""
"","","","","","call-function","6","null","55096","w9copb146r","2026-02-22","1a5c","null","699b84ef23e1b5c7977fbe13","Pilot_1","3","3","4","0.20","12","0.60","4","0","12","0","","","","","","","","","",""
"","","","","","call-function","7","null","55096","w9copb146r","2026-02-22","1a5c","null","699b84ef23e1b5c7977fbe13","Pilot_1","3","3","4","0.20","12","0.60","4","0","12","0","","","","","","","","","",""
"","","","","","html-keyboard-response","8","2.0.0","59690","w9copb146r","2026-02-22","1a5c","null","699b84ef23e1b5c7977fbe13","Pilot_1","3","3","4","0.20","12","0.60","4","0","12","0","","","","","","","","Treasurer","SP2",""
"","","","","","html-keyboard-response","9","2.0.0","64676","w9copb146r","2026-02-22","1a5c","null","699b84ef23e1b5c7977fbe13","Pilot_1","3","3","4","0.20","12","0.60","4","0","12","0","","","","","","","","SP2","Treasurer",""
"","","","","","html-keyboard-response","10","2.0.0","69478","w9copb146r","2026-02-22","1a5c","null","699b84ef23e1b5c7977fbe13","Pilot_1","3","3","4","0.20","12","0.60","4","0","12","0","","","","","","","","Treasurer","SP1",""
"","","","","","html-keyboard-response","11","2.0.0","73848","w9copb146r","2026-02-22","1a5c","null","699b84ef23e1b5c7977fbe13","Pilot_1","3","3","4","0.20","12","0.60","4","0","12","0","","","","","","","","SP1","Treasurer",""
"","","","","","html-keyboard-response","12","2.0.0","77501","w9copb146r","2026-02-22","1a5c","null","699b84ef23e1b5c7977fbe13","Pilot_1","3","3","4","0.20","12","0.60","4","0","12","0","","","","","","","","Treasurer","SP2",""
"","","","","","html-keyboard-response","13","2.0.0","80753","w9copb146r","2026-02-22","1a5c","null","699b84ef23e1b5c7977fbe13","Pilot_1","3","3","4","0.20","12","0.60","4","0","12","0","","","","","","","","SP2","Treasurer",""
"","","","","","html-keyboard-response","14","2.0.0","85858","w9copb146r","2026-02-22","1a5c","null","699b84ef23e1b5c7977fbe13","Pilot_1","3","3","4","0.20","12","0.60","4","0","12","0","","","","","","","","Treasurer","SP2",""
"","","","","","html-keyboard-response","15","2.0.0","89961","w9copb146r","2026-02-22","1a5c","null","699b84ef23e1b5c7977fbe13","Pilot_1","3","3","4","0.20","12","0.60","4","0","12","0","","","","","","","","SP2","Treasurer",""
"","","","","","html-keyboard-response","16","2.0.0","93979","w9copb146r","2026-02-22","1a5c","null","699b84ef23e1b5c7977fbe13","Pilot_1","3","3","4","0.20","12","0.60","4","0","12","0","","","","","","","","Treasurer","SP1",""
"","","","","","html-keyboard-response","17","2.0.0","97032","w9copb146r","2026-02-22","1a5c","null","699b84ef23e1b5c7977fbe13","Pilot_1","3","3","4","0.20","12","0.60","4","0","12","0","","","","","","","","SP1","Treasurer",""
"","","","","","html-keyboard-response","18","2.0.0","101451","w9copb146r","2026-02-22","1a5c","null","699b84ef23e1b5c7977fbe13","Pilot_1","3","3","4","0.20","12","0.60","4","0","12","0","","","","","","","","Treasurer","SP2",""
"","","","","","html-keyboard-response","19","2.0.0","104670","w9copb146r","2026-02-22","1a5c","null","699b84ef23e1b5c7977fbe13","Pilot_1","3","3","4","0.20","12","0.60","4","0","12","0","","","","","","","","SP2","Treasurer",""
"","","","","","html-keyboard-response","20","2.0.0","109757","w9copb146r","2026-02-22","1a5c","null","699b84ef23e1b5c7977fbe13","Pilot_1","3","3","4","0.20","12","0.60","4","0","12","0","","","","","","","","Treasurer","SP2",""
"","","","","","html-keyboard-response","21","2.0.0","113360","w9copb146r","2026-02-22","1a5c","null","699b84ef23e1b5c7977fbe13","Pilot_1","3","3","4","0.20","12","0.60","4","0","12","0","","","","","","","","SP2","Treasurer",""
"","","","","","html-keyboard-response","22","2.0.0","117545","w9copb146r","2026-02-22","1a5c","null","699b84ef23e1b5c7977fbe13","Pilot_1","3","3","4","0.20","12","0.60","4","0","12","0","","","","","","","","Treasurer","SP1",""
"","","","","","html-keyboard-response","23","2.0.0","120514","w9copb146r","2026-02-22","1a5c","null","699b84ef23e1b5c7977fbe13","Pilot_1","3","3","4","0.20","12","0.60","4","0","12","0","","","","","","","","SP1","Treasurer",""
"","","","","","html-keyboard-response","24","2.0.0","123883","w9copb146r","2026-02-22","1a5c","null","699b84ef23e1b5c7977fbe13","Pilot_1","3","3","4","0.20","12","0.60","4","0","12","0","","","","","","","","Treasurer","SP2",""
"","","","","","html-keyboard-response","25","2.0.0","128654","w9copb146r","2026-02-22","1a5c","null","699b84ef23e1b5c7977fbe13","Pilot_1","3","3","4","0.20","12","0.60","4","0","12","0","","","","","","","","SP2","Treasurer",""
"","","","","","html-keyboard-response","26","2.0.0","133356","w9copb146r","2026-02-22","1a5c","null","699b84ef23e1b5c7977fbe13","Pilot_1","3","3","4","0.20","12","0.60","4","0","12","0","","","","","","","","Treasurer","SP2",""
"","","","","","html-keyboard-response","27","2.0.0","137908","w9copb146r","2026-02-22","1a5c","null","699b84ef23e1b5c7977fbe13","Pilot_1","3","3","4","0.20","12","0.60","4","0","12","0","","","","","","","","SP2","Treasurer",""
"","","","","","html-keyboard-response","28","2.0.0","141177","w9copb146r","2026-02-22","1a5c","null","699b84ef23e1b5c7977fbe13","Pilot_1","3","3","4","0.20","12","0.60","4","0","12","0","","","","","","","","Treasurer","SP1",""
"","","","","","html-keyboard-response","29","2.0.0","144313","w9copb146r","2026-02-22","1a5c","null","699b84ef23e1b5c7977fbe13","Pilot_1","3","3","4","0.20","12","0.60","4","0","12","0","","","","","","","","SP1","Treasurer",""
"","","","","","html-keyboard-response","30","2.0.0","148367","w9copb146r","2026-02-22","1a5c","null","699b84ef23e1b5c7977fbe13","Pilot_1","3","3","4","0.20","12","0.60","4","0","12","0","","","","","","","","Treasurer","SP2",""
"","","","","","html-keyboard-response","31","2.0.0","152920","w9copb146r","2026-02-22","1a5c","null","699b84ef23e1b5c7977fbe13","Pilot_1","3","3","4","0.20","12","0.60","4","0","12","0","","","","","","","","SP2","Treasurer",""
"","","","","","html-keyboard-response","32","2.0.0","156721","w9copb146r","2026-02-22","1a5c","null","699b84ef23e1b5c7977fbe13","Pilot_1","3","3","4","0.20","12","0.60","4","0","12","0","","","","","","","","Treasurer","SP2",""
"","","","","","html-keyboard-response","33","2.0.0","160507","w9copb146r","2026-02-22","1a5c","null","699b84ef23e1b5c7977fbe13","Pilot_1","3","3","4","0.20","12","0.60","4","0","12","0","","","","","","","","SP2","Treasurer",""
"","","","","","html-keyboard-response","34","2.0.0","163877","w9copb146r","2026-02-22","1a5c","null","699b84ef23e1b5c7977fbe13","Pilot_1","3","3","4","0.20","12","0.60","4","0","12","0","","","","","","","","Treasurer","SP2",""
"","","","","","html-keyboard-response","35","2.0.0","168464","w9copb146r","2026-02-22","1a5c","null","699b84ef23e1b5c7977fbe13","Pilot_1","3","3","4","0.20","12","0.60","4","0","12","0","","","","","","","","SP2","Treasurer",""
"","","","","","html-keyboard-response","36","2.0.0","173400","w9copb146r","2026-02-22","1a5c","null","699b84ef23e1b5c7977fbe13","Pilot_1","3","3","4","0.20","12","0.60","4","0","12","0","","","","","","","","Treasurer","SP2",""
"","","","","","html-keyboard-response","37","2.0.0","176802","w9copb146r","2026-02-22","1a5c","null","699b84ef23e1b5c7977fbe13","Pilot_1","3","3","4","0.20","12","0.60","4","0","12","0","","","","","","","","SP2","Treasurer",""
"","","","","","html-keyboard-response","38","2.0.0","181323","w9copb146r","2026-02-22","1a5c","null","699b84ef23e1b5c7977fbe13","Pilot_1","3","3","4","0.20","12","0.60","4","0","12","0","","","","","","","","Treasurer","SP2",""
"","","","","","html-keyboard-response","39","2.0.0","186343","w9copb146r","2026-02-22","1a5c","null","699b84ef23e1b5c7977fbe13","Pilot_1","3","3","4","0.20","12","0.60","4","0","12","0","","","","","","","","SP2","Treasurer",""
"","","","","","html-button-response","40","2.0.0","189736","w9copb146r","2026-02-22","1a5c","null","699b84ef23e1b5c7977fbe13","Pilot_1","3","3","4","0.20","12","0.60","4","0","12","0","end_game","3393","<h2>Game Over</h2>
              <p style=""width: 800px; text-align: start;"">The game has ended! You earned <b>4 points</b>, which is equivalent to <b>$0.20</b>.<br><br>
                Your fellow player, Standard Player 2, earned <b>12 points</b>, which is equivalent to <b>$0.60</b>.<br><br>
                Please click the button below to continue to the next part of the study.</p>","0","","","","","",""
"","","","","","survey-text","41","2.0.0","205487","w9copb146r","2026-02-22","1a5c","null","699b84ef23e1b5c7977fbe13","Pilot_1","3","3","4","0.20","12","0.60","4","0","12","0","comprehension_check","15749","","{""SP1_ball_received_T"":""4"",""SP1_ball_received_SP2"":""0"",""SP2_ball_received_T"":""12""}","","","","","",""
"","","","","","html-slider-response","42","2.0.0","218367","w9copb146r","2026-02-22","1a5c","null","699b84ef23e1b5c7977fbe13","Pilot_1","3","3","4","0.20","12","0.60","4","0","12","0","","12879","
  <p style=""width: 1000px; padding: 10px"">
    You may choose to reduce SP2’s earnings by giving up some of your own earnings. This is a <u>one-time, one-sided decision</u>. This means only you make this decision; SP2 will not make a corresponding decision.<br><br>

    For every <b>$0.01</b> you give up, SP2’s earnings are reduced by <b>$0.05</b>.<br>
    For example, giving up <b>$0.03</b> reduces SP2’s earnings by <b>$0.15</b>. Choosing $0 means no change to either participant's earnings.<br>
    Earnings for either participant cannot go below <b>$0</b>.<br><br>

    You may move the slider below to see how different choices would affect both participants’ earnings. Moving the slider does not finalize your decision. Your decision is only locked in once you click 'Continue' and move on to the next task.<br><br>

    There is no correct or expected choice. Please use the slider to indicate how much of your own earnings you would like to give up in order to reduce SP2's earnings.
    </p>

  <div style=""
    display:flex;
    justify-content:center;
    gap:100px;
    margin:30px 0;
    align-items:flex-end;
  "">

    <div style=""text-align:center;"">
      <div id=""sp1-baseline"" style=""font-weight: bold; margin-bottom:6px;"">$0.00</div>
      <div id=""sp1-coins""></div>
      <div style=""margin-top:6px;"">You (SP1)</div>
    </div>

    <div style=""text-align:center;"">
      <div id=""sp2-baseline"" style=""font-weight: bold; margin-bottom:6px;"">$0.00</div>
      <div id=""sp2-coins""></div>
      <div style=""margin-top:6px;"">SP2</div>
    </div>

  </div>
  ","0","","","","","","0"
"","","","","","call-function","43","null","218367","w9copb146r","2026-02-22","1a5c","null","699b84ef23e1b5c7977fbe13","Pilot_1","3","3","4","0.20","12","0.60","4","0","12","0","","","","","","","","","",""
"","","","","","survey-text","44","2.0.0","1390842","w9copb146r","2026-02-22","1a5c","null","699b84ef23e1b5c7977fbe13","Pilot_1","3","3","4","0.20","12","0.60","4","0","12","0","","1172375","","{""dv1_OE_game_satisfaction"":""No, because SP2 received the ball three times as many times from the treasurer. At five cents a point it wasn't a huge loss, but it was clearly weighted. I would've preferred that the ball was distributed more evenly - especially because there was no skill aspect to the game."",""dv1_oe_playtime_satisfaction"":""No. As mentioned previously, SP2 received the ball much more often. There were relatively very few opportunities for me to interact. It was boring, but the expectation that the next throw from the treasurer would surely be to me kept me engaged. I would've expected more demanded of me but that's not the case."",""dv1_oe_earnings_satisfaction"":""In strict terms of actual monetary value I was neither satisfied or unsatisfied. Five cents a point is nothing to get upset about. However, if we're talking about the point values, the Treasurer's obvious bias, whether intentional or not, was unsatisfactory. I would have preferred that the tosses were somewhat equal."",""dv1_oe_treasurer_behavior"":""Treasurer favored SP2 for some reason, so I obviously disliked it. It didn't meet my expectations, which were to receive the ball somewhat more. It would've been better for me if the Treasurer had given me the ball more. Ideally the Treasurer would have simply tossed the ball to me, then to SP2, and so on"",""dv1_oe_sp2_behavior"":""They played within the rules of the game. I can't say that I would've done much differently, although because the monetary value was so small if the situation were reversed I probably would have tossed the ball to SP2 a few times in order to keep things somewhat equal in terms of opportunities."",""dv1_oe_message_to_treasurer"":""I'd ask if the treasurer was aware of the rules or if they were simply instructed to throw the ball to one player or the other. I'd point out that their actions were heavily weighted towards one player. I'd inquire why they started out with a fairly even distribution, but eventually settled on throwing the ball solely to SP2."",""dv1_oe_message_to_sp2"":""I would have nothing much to say, because they played the game according to the rules to their own benefit. I would ask if they ever considered throwing the ball to me once they realized that they were continuously receiving the ball from the treasurer. I would assure them that there were no hard feelings; I was simply curious about their thinking.""}","","","","","",""
"","","","","","survey-likert","45","2.0.0","1437707","w9copb146r","2026-02-22","1a5c","null","699b84ef23e1b5c7977fbe13","Pilot_1","3","3","4","0.20","12","0.60","4","0","12","0","","46865","","{""dv2_praising"":3,""dv2_insulting"":0,""dv2_avoiding"":3,""dv2_become_friends"":3,""dv2_unkind_things"":0,""dv2_helping"":5,""dv2_complementing"":3,""dv2_favor"":3,""dv2_invite_fun"":2,""dv2_ignore"":3}","[0,1,2,3,4,5,6,7,8,9]","","","","",""
"","","","","","survey-likert","46","2.0.0","1499647","w9copb146r","2026-02-22","1a5c","null","699b84ef23e1b5c7977fbe13","Pilot_1","3","3","4","0.20","12","0.60","4","0","12","0","","61939","","{""dv3_state_envy"":4,""dv3_state_jealous"":0,""dv3_state_bitter"":0,""dv3_state_resentful"":0,""dv3_state_happy"":1,""dv3_state_compassionate"":1,""dv3_state_surprised"":2,""dv3_state_grateful"":0,""dv3_state_thankful"":0,""dv3_state_sad"":3,""dv3_state_upset"":0,""dv3_state_disappointed"":5,""dv3_state_annoyed"":1,""dv3_state_angry"":0,""dv3_state_shame"":1,""dv3_state_contempt"":0,""dv3_state_joy"":0,""dv3_state_irritated"":0}","[0,1,2,3,4,5,6,7,8,9,10,11,12,13,14,15,16,17]","","","","",""
"","","","","","survey-likert","47","2.0.0","1533799","w9copb146r","2026-02-22","1a5c","null","699b84ef23e1b5c7977fbe13","Pilot_1","3","3","4","0.20","12","0.60","4","0","12","0","","34151","","{""dv3a_felt_bad_others"":0,""dv3a_felt_ignored"":5,""dv3a_attention_check_1"":1,""dv3a_understood_rules"":6,""dv3a_wish_received_more"":6,""dv3a_performed_well"":3,""dv3a_game_different"":6,""dv3a_felt_excluded"":4,""dv3a_game_unfair"":4,""dv3a_felt_malicious_envy"":0,""dv3a_results_happy"":0}","[10,4,5,8,3,9,2,6,0,7,1]","","","","",""
"","","","","","survey-likert","48","2.0.0","1559690","w9copb146r","2026-02-22","1a5c","null","699b84ef23e1b5c7977fbe13","Pilot_1","3","3","4","0.20","12","0.60","4","0","12","0","","25890","","{""dv3b_sp2_closeness"":0,""dv3b_sp2_take_winnings"":1,""dv3b_sp2_competition"":0,""dv3b_sp2_rival"":0,""dv3b_sp2_shared_goals"":6,""dv3b_sp2_betrayal"":0,""dv3b_sp2_unfiar"":0,""dv3b_sp2_deservingness"":5}","[0,3,5,7,6,1,2,4]","","","","",""
"","","","","","survey-likert","49","2.0.0","1575737","w9copb146r","2026-02-22","1a5c","null","699b84ef23e1b5c7977fbe13","Pilot_1","3","3","4","0.20","12","0.60","4","0","12","0","","16046","","{""dv3c_treasurer_closeness"":0,""dv3b_treasurer_shared_goals"":0,""dv3c_treasurer_unfair"":6,""dv3b_treasurer_rival"":1,""dv3c_treasurer_betrayal"":4,""dv3b_treasurer_competition"":0}","[0,4,2,5,1,3]","","","","",""
"","","","","","survey-likert","50","2.0.0","1601555","w9copb146r","2026-02-22","1a5c","null","699b84ef23e1b5c7977fbe13","Pilot_1","3","3","4","0.20","12","0.60","4","0","12","0","","25817","","{""dv4_rain_on_parade"":0,""dv4_trade_places_rev"":5,""dv4_angry_others_succeed"":3,""dv4_happy_friends_succeed_rev"":6,""dv4_content_with_self_rev"":1,""dv4_happy_others_succeed_rev"":3,""dv4_pain_friends_succeed"":0,""dv4_prefer_stranger_win"":4}","[0,1,2,3,4,5,6,7]","","","","",""
"","","","","","survey-multi-choice","51","2.1.0","1623605","w9copb146r","2026-02-22","1a5c","null","699b84ef23e1b5c7977fbe13","Pilot_1","3","3","4","0.20","12","0.60","4","0","12","0","","22049","","{""demo_attention_check_2"":""1000+"",""demo_sex"":""Male"",""demo_gender"":""Man"",""demo_education"":""Bachelor's degree (4-years)"",""demo_social_class"":""2 = lower middle"",""demo_marital_status"":""Never married""}","[0,1,2,3,4,5]","","","","",""
"","","","","","survey-text","52","2.0.0","1627012","w9copb146r","2026-02-22","1a5c","null","699b84ef23e1b5c7977fbe13","Pilot_1","3","3","4","0.20","12","0.60","4","0","12","0","","3405","","{""demo_age"":""56""}","","","","","",""
"","","","","","survey-multi-select","53","null","1629892","w9copb146r","2026-02-22","1a5c","null","699b84ef23e1b5c7977fbe13","Pilot_1","3","3","4","0.20","12","0.60","4","0","12","0","","2879","","{""demo_race"":[""Asian""]}","[0]","","","","",""
"","","","","","survey-likert","54","2.0.0","1633087","w9copb146r","2026-02-22","1a5c","null","699b84ef23e1b5c7977fbe13","Pilot_1","3","3","4","0.20","12","0.60","4","0","12","0","","3194","","{""attention_check_3"":4}","[0]","","","","",""
"","","","","","survey-text","55","2.0.0","1661787","w9copb146r","2026-02-22","1a5c","null","699b84ef23e1b5c7977fbe13","Pilot_1","3","3","4","0.20","12","0.60","4","0","12","0","","28699","","{""funnel1"":""thoughts when being biased against"",""funnel2"":""no idea"",""funnel3"":""throw me the ball more""}","","","","","",""
