"success","timeout","failed_images","failed_audio","failed_video","trial_type","trial_index","plugin_version","time_elapsed","subject_id","experiment_date","prolific_id_last4","study_id","session_id","version","condition","schedule","sp1Points","sp1Dollars","sp2Points","sp2Dollars","SP1_ball_received_T","SP1_ball_received_SP2","SP2_ball_received_T","burn_amount","task","rt","stimulus","response","question_order","correct","value","from","to","slider_start"
"true","false","[]","[]","[]","preload","0","2.0.0","74","wbbu7ry2bx","2026-02-22","b724","null","699b84d7d7663b83f8e31d23","Pilot_1","1","1","8","0.40","8","0.40","8","","8","0","","","","","","","","","",""
"","","","","","html-button-response","1","2.0.0","1982","wbbu7ry2bx","2026-02-22","b724","null","699b84d7d7663b83f8e31d23","Pilot_1","1","1","8","0.40","8","0.40","8","","8","0","consent","1907","
    <p style = ""text-align: start; width: 900px""> You are being invited to participate in a research study titled: The Influence of Social Interactions on Decision Making.<br><br>
        This study is being done by Michael McCullough, PhD (Principal Investigator) from UC San Diego. You were selected to participate in this study because you are a representative member of the society the investigators wish to study. 
        The purpose of this research study is to explore how nonverbal social interactions affect the way people talk to themselves. Your participation in this research should last no longer than 30 minutes. If you agree to take part in this study, you will be asked to complete several surveys that ask about your feelings, beliefs, judgments, and personal background.
        Your participation in this study is completely voluntary and you can withdraw at any time. Choosing not to participate or withdrawing will result in no penalty or loss of benefits to which you are entitled. Research sometimes requires that information regarding its purpose not be shared with the research participants because its knowledge could impact the results of the research. 
        Note that none of the aspects of the research being withheld are reasonably expected to affect your willingness to take part. While the tasks you will be asked to perform for this research have been explained, the full intent of the research will not be provided until the completion of the study. At that time, you will have the opportunity to ask questions, including about the purpose of the study and the procedures used, and withdraw your data if you so choose.
        If you have questions about this project or if you have a research-related problem, you may contact the researcher(s), Michael McCullough, Ph.D., Department of Psychology, University of California, San Diego, 9500 Gilman Drive, La Jolla, CA 92093-0109 and by email at memccullough@ucsd.edu. If you have any questions concerning your rights as a research subject, you may contact the UC San Diego Office of IRB Administration at irb@ucsd.edu or 858-246-4777.
        By participating in this research, you are indicating that you are at least 18 years old, have read this consent form, and agree to participate in this research study. Please keep this consent form for your records.</p>
        <p>Do you consent?</p>","0","","","","","",""
"","","","","","html-button-response","2","2.0.0","12071","wbbu7ry2bx","2026-02-22","b724","null","699b84d7d7663b83f8e31d23","Pilot_1","1","1","8","0.40","8","0.40","8","","8","0","study_description","10088","<h2>Study Description</h2>
                 <p style=""width: 900px; text-align: start"">Thank you for agreeing to participate in this study! This study seeks to understand how social interactions influence our decision-making processes.<br><br>
                 In this study, you will play a virtual ball-tossing game with two other participants. The game is designed to simulate social interactions and observe how they affect how you make decisions towards other people.<br><br>
                 The instructions for the game will be provided in the next section. To ensure that everyone understands the rules, there will be a short quiz. If you get any answers wrong, don't worry—you will have the opportunity to review the instructions and retake the quiz until you get all the answers correct.<br><br>
                 Please pay close attention to the game and try to engage with the other participants as naturally as possible.</p>","0","","","","","",""
"","","","","","html-button-response","3","2.0.0","42558","wbbu7ry2bx","2026-02-22","b724","null","699b84d7d7663b83f8e31d23","Pilot_1","1","1","8","0.40","8","0.40","8","","8","0","game_instructions","30485","<h2>Game Instructions</h2>
                <p style=""width: 1000px; text-align: start"">In Cyberball there are three players: Standard Player 1 (SP1), Standard Player 2 (SP2), and a Treasurer. <b>You are SP1</b>.
                <br><br>
                Your objective in Cyberball is to earn points by tossing a ball. At the end of the game, the points will be converted into a monetary bonus. Each point you earn is worth $0.05. To help you keep track of points, there will be a scoreboard displayed in the top-right corner of the screen during the game.
                <br><br>
                The way the game works is that SP1 and SP2 individually earn points by tossing the ball to the Treasurer. Each time that SP1 or SP2 tossed the ball to the Treasurer, <u>the person who tossed the ball earns one point</u>. In other words, SP1 and SP2 earn points when they get the chance to toss the ball to the Treasurer.
                So, for example, if SP1 tosses the ball to the Treasurer, SP1 will earn one point and SP2 will not earn any points. Likewise, if SP2 tosses the ball to the Treasurer, SP2 will earn one point and SP1 will not earn anything. 
                <br><br>
                Keep in mind that SP1 and SP2 cannot earn points by tossing the ball to each other. SP1 and SP2 can only earn points by tossing the ball to the Treasurer.</p>","0","","","","","",""
"","","","","","survey-multi-choice","4","2.1.0","51465","wbbu7ry2bx","2026-02-22","b724","null","699b84d7d7663b83f8e31d23","Pilot_1","1","1","8","0.40","8","0.40","8","","8","0","comprehension_quiz","8905","","{""role"":""Standard Player 1 (SP1)"",""points"":""By tossing the ball to the Treasurer"",""passing"":""Yes"",""passing_points"":""0 points""}","[0,1,2,3]","true","","","",""
"","","","","","html-button-response","5","2.0.0","52758","wbbu7ry2bx","2026-02-22","b724","null","699b84d7d7663b83f8e31d23","Pilot_1","1","1","8","0.40","8","0.40","8","","8","0","","1292","<p style=""color:green; font-weight:bold"">Great! You have answered all questions correctly. Let's move on to the game.</p><p>If you need a refresh on the instructions, please click the button <i>Open Cyberball Rules</i> on the top left corner of your screen.</p>","0","","","","","",""
"","","","","","call-function","6","null","52759","wbbu7ry2bx","2026-02-22","b724","null","699b84d7d7663b83f8e31d23","Pilot_1","1","1","8","0.40","8","0.40","8","","8","0","","","","","","","","","",""
"","","","","","call-function","7","null","52760","wbbu7ry2bx","2026-02-22","b724","null","699b84d7d7663b83f8e31d23","Pilot_1","1","1","8","0.40","8","0.40","8","","8","0","","","","","","","","","",""
"","","","","","html-keyboard-response","8","2.0.0","56377","wbbu7ry2bx","2026-02-22","b724","null","699b84d7d7663b83f8e31d23","Pilot_1","1","1","8","0.40","8","0.40","8","","8","0","","","","","","","","Treasurer","SP2",""
"","","","","","html-keyboard-response","9","2.0.0","60044","wbbu7ry2bx","2026-02-22","b724","null","699b84d7d7663b83f8e31d23","Pilot_1","1","1","8","0.40","8","0.40","8","","8","0","","","","","","","","SP2","Treasurer",""
"","","","","","html-keyboard-response","10","2.0.0","64451","wbbu7ry2bx","2026-02-22","b724","null","699b84d7d7663b83f8e31d23","Pilot_1","1","1","8","0.40","8","0.40","8","","8","0","","","","","","","","Treasurer","SP1",""
"","","","","","html-keyboard-response","11","2.0.0","67295","wbbu7ry2bx","2026-02-22","b724","null","699b84d7d7663b83f8e31d23","Pilot_1","1","1","8","0.40","8","0.40","8","","8","0","","","","","","","","SP1","Treasurer",""
"","","","","","html-keyboard-response","12","2.0.0","70672","wbbu7ry2bx","2026-02-22","b724","null","699b84d7d7663b83f8e31d23","Pilot_1","1","1","8","0.40","8","0.40","8","","8","0","","","","","","","","Treasurer","SP2",""
"","","","","","html-keyboard-response","13","2.0.0","74476","wbbu7ry2bx","2026-02-22","b724","null","699b84d7d7663b83f8e31d23","Pilot_1","1","1","8","0.40","8","0.40","8","","8","0","","","","","","","","SP2","Treasurer",""
"","","","","","html-keyboard-response","14","2.0.0","78613","wbbu7ry2bx","2026-02-22","b724","null","699b84d7d7663b83f8e31d23","Pilot_1","1","1","8","0.40","8","0.40","8","","8","0","","","","","","","","Treasurer","SP1",""
"","","","","","html-keyboard-response","15","2.0.0","81423","wbbu7ry2bx","2026-02-22","b724","null","699b84d7d7663b83f8e31d23","Pilot_1","1","1","8","0.40","8","0.40","8","","8","0","","","","","","","","SP1","Treasurer",""
"","","","","","html-keyboard-response","16","2.0.0","85255","wbbu7ry2bx","2026-02-22","b724","null","699b84d7d7663b83f8e31d23","Pilot_1","1","1","8","0.40","8","0.40","8","","8","0","","","","","","","","Treasurer","SP1",""
"","","","","","html-keyboard-response","17","2.0.0","88800","wbbu7ry2bx","2026-02-22","b724","null","699b84d7d7663b83f8e31d23","Pilot_1","1","1","8","0.40","8","0.40","8","","8","0","","","","","","","","SP1","Treasurer",""
"","","","","","html-keyboard-response","18","2.0.0","93682","wbbu7ry2bx","2026-02-22","b724","null","699b84d7d7663b83f8e31d23","Pilot_1","1","1","8","0.40","8","0.40","8","","8","0","","","","","","","","Treasurer","SP2",""
"","","","","","html-keyboard-response","19","2.0.0","98753","wbbu7ry2bx","2026-02-22","b724","null","699b84d7d7663b83f8e31d23","Pilot_1","1","1","8","0.40","8","0.40","8","","8","0","","","","","","","","SP2","Treasurer",""
"","","","","","html-keyboard-response","20","2.0.0","102138","wbbu7ry2bx","2026-02-22","b724","null","699b84d7d7663b83f8e31d23","Pilot_1","1","1","8","0.40","8","0.40","8","","8","0","","","","","","","","Treasurer","SP1",""
"","","","","","html-keyboard-response","21","2.0.0","104952","wbbu7ry2bx","2026-02-22","b724","null","699b84d7d7663b83f8e31d23","Pilot_1","1","1","8","0.40","8","0.40","8","","8","0","","","","","","","","SP1","Treasurer",""
"","","","","","html-keyboard-response","22","2.0.0","109273","wbbu7ry2bx","2026-02-22","b724","null","699b84d7d7663b83f8e31d23","Pilot_1","1","1","8","0.40","8","0.40","8","","8","0","","","","","","","","Treasurer","SP2",""
"","","","","","html-keyboard-response","23","2.0.0","112965","wbbu7ry2bx","2026-02-22","b724","null","699b84d7d7663b83f8e31d23","Pilot_1","1","1","8","0.40","8","0.40","8","","8","0","","","","","","","","SP2","Treasurer",""
"","","","","","html-keyboard-response","24","2.0.0","117898","wbbu7ry2bx","2026-02-22","b724","null","699b84d7d7663b83f8e31d23","Pilot_1","1","1","8","0.40","8","0.40","8","","8","0","","","","","","","","Treasurer","SP2",""
"","","","","","html-keyboard-response","25","2.0.0","122203","wbbu7ry2bx","2026-02-22","b724","null","699b84d7d7663b83f8e31d23","Pilot_1","1","1","8","0.40","8","0.40","8","","8","0","","","","","","","","SP2","Treasurer",""
"","","","","","html-keyboard-response","26","2.0.0","126750","wbbu7ry2bx","2026-02-22","b724","null","699b84d7d7663b83f8e31d23","Pilot_1","1","1","8","0.40","8","0.40","8","","8","0","","","","","","","","Treasurer","SP1",""
"","","","","","html-keyboard-response","27","2.0.0","129634","wbbu7ry2bx","2026-02-22","b724","null","699b84d7d7663b83f8e31d23","Pilot_1","1","1","8","0.40","8","0.40","8","","8","0","","","","","","","","SP1","Treasurer",""
"","","","","","html-keyboard-response","28","2.0.0","134466","wbbu7ry2bx","2026-02-22","b724","null","699b84d7d7663b83f8e31d23","Pilot_1","1","1","8","0.40","8","0.40","8","","8","0","","","","","","","","Treasurer","SP2",""
"","","","","","html-keyboard-response","29","2.0.0","138776","wbbu7ry2bx","2026-02-22","b724","null","699b84d7d7663b83f8e31d23","Pilot_1","1","1","8","0.40","8","0.40","8","","8","0","","","","","","","","SP2","Treasurer",""
"","","","","","html-keyboard-response","30","2.0.0","143211","wbbu7ry2bx","2026-02-22","b724","null","699b84d7d7663b83f8e31d23","Pilot_1","1","1","8","0.40","8","0.40","8","","8","0","","","","","","","","Treasurer","SP1",""
"","","","","","html-keyboard-response","31","2.0.0","145847","wbbu7ry2bx","2026-02-22","b724","null","699b84d7d7663b83f8e31d23","Pilot_1","1","1","8","0.40","8","0.40","8","","8","0","","","","","","","","SP1","Treasurer",""
"","","","","","html-keyboard-response","32","2.0.0","150787","wbbu7ry2bx","2026-02-22","b724","null","699b84d7d7663b83f8e31d23","Pilot_1","1","1","8","0.40","8","0.40","8","","8","0","","","","","","","","Treasurer","SP1",""
"","","","","","html-keyboard-response","33","2.0.0","153092","wbbu7ry2bx","2026-02-22","b724","null","699b84d7d7663b83f8e31d23","Pilot_1","1","1","8","0.40","8","0.40","8","","8","0","","","","","","","","SP1","Treasurer",""
"","","","","","html-keyboard-response","34","2.0.0","156677","wbbu7ry2bx","2026-02-22","b724","null","699b84d7d7663b83f8e31d23","Pilot_1","1","1","8","0.40","8","0.40","8","","8","0","","","","","","","","Treasurer","SP2",""
"","","","","","html-keyboard-response","35","2.0.0","160655","wbbu7ry2bx","2026-02-22","b724","null","699b84d7d7663b83f8e31d23","Pilot_1","1","1","8","0.40","8","0.40","8","","8","0","","","","","","","","SP2","Treasurer",""
"","","","","","html-keyboard-response","36","2.0.0","165331","wbbu7ry2bx","2026-02-22","b724","null","699b84d7d7663b83f8e31d23","Pilot_1","1","1","8","0.40","8","0.40","8","","8","0","","","","","","","","Treasurer","SP1",""
"","","","","","html-keyboard-response","37","2.0.0","167781","wbbu7ry2bx","2026-02-22","b724","null","699b84d7d7663b83f8e31d23","Pilot_1","1","1","8","0.40","8","0.40","8","","8","0","","","","","","","","SP1","Treasurer",""
"","","","","","html-keyboard-response","38","2.0.0","171185","wbbu7ry2bx","2026-02-22","b724","null","699b84d7d7663b83f8e31d23","Pilot_1","1","1","8","0.40","8","0.40","8","","8","0","","","","","","","","Treasurer","SP2",""
"","","","","","html-keyboard-response","39","2.0.0","175689","wbbu7ry2bx","2026-02-22","b724","null","699b84d7d7663b83f8e31d23","Pilot_1","1","1","8","0.40","8","0.40","8","","8","0","","","","","","","","SP2","Treasurer",""
"","","","","","html-button-response","40","2.0.0","178690","wbbu7ry2bx","2026-02-22","b724","null","699b84d7d7663b83f8e31d23","Pilot_1","1","1","8","0.40","8","0.40","8","","8","0","end_game","3000","<h2>Game Over</h2>
              <p style=""width: 800px; text-align: start;"">The game has ended! You earned <b>8 points</b>, which is equivalent to <b>$0.40</b>.<br><br>
                Your fellow player, Standard Player 2, earned <b>8 points</b>, which is equivalent to <b>$0.40</b>.<br><br>
                Please click the button below to continue to the next part of the study.</p>","0","","","","","",""
"","","","","","survey-text","41","2.0.0","184847","wbbu7ry2bx","2026-02-22","b724","null","699b84d7d7663b83f8e31d23","Pilot_1","1","1","8","0.40","8","0.40","8","","8","0","comprehension_check","6150","","{""SP1_ball_received_T"":""8"",""SP2_ball_received_T"":""8""}","","","","","",""
"","","","","","html-slider-response","42","2.0.0","201517","wbbu7ry2bx","2026-02-22","b724","null","699b84d7d7663b83f8e31d23","Pilot_1","1","1","8","0.40","8","0.40","8","","8","0","","16669","
  <p style=""width: 1000px; padding: 10px"">
    You may choose to reduce SP2’s earnings by giving up some of your own earnings. This is a <u>one-time, one-sided decision</u>. This means only you make this decision; SP2 will not make a corresponding decision.<br><br>

    For every <b>$0.01</b> you give up, SP2’s earnings are reduced by <b>$0.05</b>.<br>
    For example, giving up <b>$0.03</b> reduces SP2’s earnings by <b>$0.15</b>. Choosing $0 means no change to either participant's earnings.<br>
    Earnings for either participant cannot go below <b>$0</b>.<br><br>

    You may move the slider below to see how different choices would affect both participants’ earnings. Moving the slider does not finalize your decision. Your decision is only locked in once you click 'Continue' and move on to the next task.<br><br>

    There is no correct or expected choice. Please use the slider to indicate how much of your own earnings you would like to give up in order to reduce SP2's earnings.
    </p>

  <div style=""
    display:flex;
    justify-content:center;
    gap:100px;
    margin:30px 0;
    align-items:flex-end;
  "">

    <div style=""text-align:center;"">
      <div id=""sp1-baseline"" style=""font-weight: bold; margin-bottom:6px;"">$0.00</div>
      <div id=""sp1-coins""></div>
      <div style=""margin-top:6px;"">You (SP1)</div>
    </div>

    <div style=""text-align:center;"">
      <div id=""sp2-baseline"" style=""font-weight: bold; margin-bottom:6px;"">$0.00</div>
      <div id=""sp2-coins""></div>
      <div style=""margin-top:6px;"">SP2</div>
    </div>

  </div>
  ","0","","","","","","0"
"","","","","","call-function","43","null","201518","wbbu7ry2bx","2026-02-22","b724","null","699b84d7d7663b83f8e31d23","Pilot_1","1","1","8","0.40","8","0.40","8","","8","0","","","","","","","","","",""
"","","","","","survey-text","44","2.0.0","657543","wbbu7ry2bx","2026-02-22","b724","null","699b84d7d7663b83f8e31d23","Pilot_1","1","1","8","0.40","8","0.40","8","","8","0","","456015","","{""dv1_OE_game_satisfaction"":""I am satisfied that it was even, I think it went well. It was fair. I am satisfied that the treasurer did not focus on the other player and not include me. They kept it evenly distributed between the two of us players, and for that I have zero complaints."",""dv1_oe_playtime_satisfaction"":""I'm satisfied that things were evenly split between me and player 2. It would have been unfair if one of us got more attention from the treasurer. I feel like I got to play enough and so did the other player. If I had gotten more play, the other person would have gotten less."",""dv1_oe_earnings_satisfaction"":""I wish it had been more money, but it was fair, so I can't complain about that. Me making more money would have come at the expense of player #2 and that would not have been fair if the roles were reversed the other way. I am satisfied with the outcome."",""dv1_oe_treasurer_behavior"":""I think they behaved very evenly, it was 50/50 with me and the other player. The treasurer completely met my expectations for how to behave during the game. I liked that they did not exclude me or my fellow player, I feel that it was very fair and I liked that. I don't wish they had done anything differently, aside from playing longer so both of us players could earn additional points."",""dv1_oe_sp2_behavior"":""I think they behaved normally, they behaved just like I did. They completely met my expectations. I did not expect them to throw to me and earn no points, I fully expected them to solely throw the ball to the treasurer, so they met my expectations. I don't wish they had done anything differently."",""dv1_oe_message_to_treasurer"":""I would say thank you for being fair to both of us players throughout the ball toss game. It affected me positively by not discriminating or singling one of us out. I would have been upset if I felt that they were giving all of their attention to player 2, so thank you for being equal."",""dv1_oe_message_to_sp2"":""I don't really have anything to say to them good or bad. I'd just say good game, or congratulations to them. They didn't do anything negative or positive to me, so I'd probably just say something kind but impersonal to them. I'm sure they'd do the same for me as well.""}","","","","","",""
"","","","","","survey-likert","45","2.0.0","682600","wbbu7ry2bx","2026-02-22","b724","null","699b84d7d7663b83f8e31d23","Pilot_1","1","1","8","0.40","8","0.40","8","","8","0","","25055","","{""dv2_praising"":3,""dv2_insulting"":0,""dv2_avoiding"":0,""dv2_become_friends"":5,""dv2_unkind_things"":0,""dv2_helping"":6,""dv2_complementing"":3,""dv2_favor"":5,""dv2_invite_fun"":4,""dv2_ignore"":0}","[0,1,2,3,4,5,6,7,8,9]","","","","",""
"","","","","","survey-likert","46","2.0.0","712622","wbbu7ry2bx","2026-02-22","b724","null","699b84d7d7663b83f8e31d23","Pilot_1","1","1","8","0.40","8","0.40","8","","8","0","","30018","","{""dv3_state_envy"":0,""dv3_state_jealous"":0,""dv3_state_bitter"":0,""dv3_state_resentful"":0,""dv3_state_happy"":6,""dv3_state_compassionate"":6,""dv3_state_surprised"":3,""dv3_state_grateful"":3,""dv3_state_thankful"":3,""dv3_state_sad"":0,""dv3_state_upset"":0,""dv3_state_disappointed"":0,""dv3_state_annoyed"":0,""dv3_state_angry"":0,""dv3_state_shame"":0,""dv3_state_contempt"":0,""dv3_state_joy"":4,""dv3_state_irritated"":0}","[0,1,2,3,4,5,6,7,8,9,10,11,12,13,14,15,16,17]","","","","",""
"","","","","","survey-likert","47","2.0.0","739875","wbbu7ry2bx","2026-02-22","b724","null","699b84d7d7663b83f8e31d23","Pilot_1","1","1","8","0.40","8","0.40","8","","8","0","","27251","","{""dv3a_felt_ignored"":0,""dv3a_felt_excluded"":0,""dv3a_attention_check_1"":1,""dv3a_felt_malicious_envy"":0,""dv3a_game_unfair"":0,""dv3a_game_different"":0,""dv3a_understood_rules"":6,""dv3a_results_happy"":5,""dv3a_wish_received_more"":4,""dv3a_felt_bad_others"":0,""dv3a_performed_well"":6}","[4,6,5,7,0,2,8,1,3,10,9]","","","","",""
"","","","","","survey-likert","48","2.0.0","757116","wbbu7ry2bx","2026-02-22","b724","null","699b84d7d7663b83f8e31d23","Pilot_1","1","1","8","0.40","8","0.40","8","","8","0","","17240","","{""dv3b_sp2_shared_goals"":6,""dv3b_sp2_betrayal"":0,""dv3b_sp2_closeness"":4,""dv3b_sp2_deservingness"":6,""dv3b_sp2_rival"":0,""dv3b_sp2_take_winnings"":0,""dv3b_sp2_competition"":4,""dv3b_sp2_unfiar"":0}","[6,1,0,4,7,3,5,2]","","","","",""
"","","","","","survey-likert","49","2.0.0","767649","wbbu7ry2bx","2026-02-22","b724","null","699b84d7d7663b83f8e31d23","Pilot_1","1","1","8","0.40","8","0.40","8","","8","0","","10531","","{""dv3b_treasurer_shared_goals"":3,""dv3c_treasurer_closeness"":3,""dv3c_treasurer_unfair"":0,""dv3b_treasurer_competition"":0,""dv3c_treasurer_betrayal"":0,""dv3b_treasurer_rival"":0}","[4,0,2,3,1,5]","","","","",""
"","","","","","survey-likert","50","2.0.0","789044","wbbu7ry2bx","2026-02-22","b724","null","699b84d7d7663b83f8e31d23","Pilot_1","1","1","8","0.40","8","0.40","8","","8","0","","21393","","{""dv4_rain_on_parade"":0,""dv4_trade_places_rev"":3,""dv4_angry_others_succeed"":0,""dv4_happy_friends_succeed_rev"":6,""dv4_content_with_self_rev"":5,""dv4_happy_others_succeed_rev"":4,""dv4_pain_friends_succeed"":2,""dv4_prefer_stranger_win"":3}","[0,1,2,3,4,5,6,7]","","","","",""
"","","","","","survey-multi-choice","51","2.1.0","802784","wbbu7ry2bx","2026-02-22","b724","null","699b84d7d7663b83f8e31d23","Pilot_1","1","1","8","0.40","8","0.40","8","","8","0","","13738","","{""demo_attention_check_2"":""1000+"",""demo_sex"":""Female"",""demo_gender"":""Woman"",""demo_education"":""Bachelor's degree (4-years)"",""demo_social_class"":""3 = middle"",""demo_marital_status"":""Married/In a domestic partnership""}","[0,1,2,3,4,5]","","","","",""
"","","","","","survey-text","52","2.0.0","805983","wbbu7ry2bx","2026-02-22","b724","null","699b84d7d7663b83f8e31d23","Pilot_1","1","1","8","0.40","8","0.40","8","","8","0","","3197","","{""demo_age"":""28""}","","","","","",""
"","","","","","survey-multi-select","53","null","808435","wbbu7ry2bx","2026-02-22","b724","null","699b84d7d7663b83f8e31d23","Pilot_1","1","1","8","0.40","8","0.40","8","","8","0","","2449","","{""demo_race"":[""White""]}","[0]","","","","",""
"","","","","","survey-likert","54","2.0.0","811912","wbbu7ry2bx","2026-02-22","b724","null","699b84d7d7663b83f8e31d23","Pilot_1","1","1","8","0.40","8","0.40","8","","8","0","","3475","","{""attention_check_3"":4}","[0]","","","","",""
"","","","","","survey-text","55","2.0.0","822855","wbbu7ry2bx","2026-02-22","b724","null","699b84d7d7663b83f8e31d23","Pilot_1","1","1","8","0.40","8","0.40","8","","8","0","","10940","","{""funnel1"":""perceived slights"",""funnel2"":""Unsure"",""funnel3"":""""}","","","","","",""
