"success","timeout","failed_images","failed_audio","failed_video","trial_type","trial_index","plugin_version","time_elapsed","subject_id","experiment_date","prolific_id_last4","study_id","session_id","version","condition","schedule","sp1Points","sp1Dollars","sp2Points","sp2Dollars","SP1_ball_received_T","SP1_ball_received_SP2","SP2_ball_received_T","burn_amount","task","rt","stimulus","response","question_order","correct","value","from","to","slider_start"
"true","false","[]","[]","[]","preload","0","2.0.0","123","yqgm95vm2d","2026-02-16","fd9b","null","699384e70271bb90b64007fc","Pilot_1","2","2","4","0.20","12","0.60","4","","12","0","","","","","","","","","",""
"","","","","","html-button-response","1","2.0.0","5608","yqgm95vm2d","2026-02-16","fd9b","null","699384e70271bb90b64007fc","Pilot_1","2","2","4","0.20","12","0.60","4","","12","0","consent","5484","
    <p style = ""text-align: start; width: 900px""> You are being invited to participate in a research study titled: The Influence of Social Interactions on Decision Making.<br><br>
        This study is being done by Michael McCullough, PhD (Principal Investigator) from UC San Diego. You were selected to participate in this study because you are a representative member of the society the investigators wish to study. 
        The purpose of this research study is to explore how nonverbal social interactions affect the way people talk to themselves. Your participation in this research should last no longer than 30 minutes. If you agree to take part in this study, you will be asked to complete several surveys that ask about your feelings, beliefs, judgments, and personal background.
        Your participation in this study is completely voluntary and you can withdraw at any time. Choosing not to participate or withdrawing will result in no penalty or loss of benefits to which you are entitled. Research sometimes requires that information regarding its purpose not be shared with the research participants because its knowledge could impact the results of the research. 
        Note that none of the aspects of the research being withheld are reasonably expected to affect your willingness to take part. While the tasks you will be asked to perform for this research have been explained, the full intent of the research will not be provided until the completion of the study. At that time, you will have the opportunity to ask questions, including about the purpose of the study and the procedures used, and withdraw your data if you so choose.
        If you have questions about this project or if you have a research-related problem, you may contact the researcher(s), Michael McCullough, Ph.D., Department of Psychology, University of California, San Diego, 9500 Gilman Drive, La Jolla, CA 92093-0109 and by email at memccullough@ucsd.edu. If you have any questions concerning your rights as a research subject, you may contact the UC San Diego Office of IRB Administration at irb@ucsd.edu or 858-246-4777.
        By participating in this research, you are indicating that you are at least 18 years old, have read this consent form, and agree to participate in this research study. Please keep this consent form for your records.</p>
        <p>Do you consent?</p>","0","","","","","",""
"","","","","","html-button-response","2","2.0.0","69991","yqgm95vm2d","2026-02-16","fd9b","null","699384e70271bb90b64007fc","Pilot_1","2","2","4","0.20","12","0.60","4","","12","0","study_description","64381","<h2>Study Description</h2>
                 <p style=""width: 900px; text-align: start"">Thank you for agreeing to participate in this study! This study seeks to understand how social interactions influence our decision-making processes.<br><br>
                 In this study, you will play a virtual ball-tossing game with two other participants. The game is designed to simulate social interactions and observe how they affect how you make decisions towards other people.<br><br>
                 The instructions for the game will be provided in the next section. To ensure that everyone understands the rules, there will be a short quiz. If you get any answers wrong, don't worry—you will have the opportunity to review the instructions and retake the quiz until you get all the answers correct.<br><br>
                 Please pay close attention to the game and try to engage with the other participants as naturally as possible.</p>","0","","","","","",""
"","","","","","html-button-response","3","2.0.0","124557","yqgm95vm2d","2026-02-16","fd9b","null","699384e70271bb90b64007fc","Pilot_1","2","2","4","0.20","12","0.60","4","","12","0","game_instructions","54565","<h2>Game Instructions</h2>
                <p style=""width: 1000px; text-align: start"">In Cyberball there are three players: Standard Player 1 (SP1), Standard Player 2 (SP2), and a Treasurer. <b>You are SP1</b>.
                    <br><br>
                    Your objective in Cyberball is to earn points by tossing a ball. At the end of the game, the points will be converted into a monetary bonus. Each point you earn is worth $0.05. To help you keep track of points, there will be a scoreboard displayed in the top-right corner of the screen during the game.<br>
                    <br>
                    The way the game works is that SP1 and SP2 individually earn points by tossing the ball to the Treasurer. Each time that SP1 or SP2 tossed the ball to the Treasurer, <u>the person who tossed the ball earns one point</u>. In other words, SP1 and SP2 earn points when they get the chance to toss the ball to the Treasurer.  
                    So, for example, if SP1 tosses the ball to the Treasurer, SP1 will earn one point and SP2 will not earn any points. Likewise, if SP2 tosses the ball to the Treasurer, SP2 will earn one point and SP1 will not earn anything. 
                    In this game, you are only allowed to pass the ball to the Treasurer. SP1 and SP2 are <b>not allowed</b> to pass the ball back and forth to each other.
                    <br><br>
                    <b>Keep in mind that SP1 and SP2 are not allowed to pass the ball to each other. You may only pass to the Treasurer.</b></p>","0","","","","","",""
"","","","","","survey-multi-choice","4","2.1.0","139526","yqgm95vm2d","2026-02-16","fd9b","null","699384e70271bb90b64007fc","Pilot_1","2","2","4","0.20","12","0.60","4","","12","0","comprehension_quiz","14965","","{""role"":""Standard Player 1 (SP1)"",""points"":""By tossing the ball to the Treasurer"",""passing"":""No"",""passing_points"":""Not allowed to pass to SP2""}","[0,1,2,3]","true","","","",""
"","","","","","html-button-response","5","2.0.0","140924","yqgm95vm2d","2026-02-16","fd9b","null","699384e70271bb90b64007fc","Pilot_1","2","2","4","0.20","12","0.60","4","","12","0","","1395","<p style=""color:green; font-weight:bold"">Great! You have answered all questions correctly. Let's move on to the game.</p><p>If you need a refresh on the instructions, please click the button <i>Open Cyberball Rules</i> on the top left corner of your screen.</p>","0","","","","","",""
"","","","","","call-function","6","null","140926","yqgm95vm2d","2026-02-16","fd9b","null","699384e70271bb90b64007fc","Pilot_1","2","2","4","0.20","12","0.60","4","","12","0","","","","","","","","","",""
"","","","","","call-function","7","null","140928","yqgm95vm2d","2026-02-16","fd9b","null","699384e70271bb90b64007fc","Pilot_1","2","2","4","0.20","12","0.60","4","","12","0","","","","","","","","","",""
"","","","","","html-keyboard-response","8","2.0.0","144917","yqgm95vm2d","2026-02-16","fd9b","null","699384e70271bb90b64007fc","Pilot_1","2","2","4","0.20","12","0.60","4","","12","0","","","","","","","","Treasurer","SP2",""
"","","","","","html-keyboard-response","9","2.0.0","149233","yqgm95vm2d","2026-02-16","fd9b","null","699384e70271bb90b64007fc","Pilot_1","2","2","4","0.20","12","0.60","4","","12","0","","","","","","","","SP2","Treasurer",""
"","","","","","html-keyboard-response","10","2.0.0","154117","yqgm95vm2d","2026-02-16","fd9b","null","699384e70271bb90b64007fc","Pilot_1","2","2","4","0.20","12","0.60","4","","12","0","","","","","","","","Treasurer","SP1",""
"","","","","","html-keyboard-response","11","2.0.0","157916","yqgm95vm2d","2026-02-16","fd9b","null","699384e70271bb90b64007fc","Pilot_1","2","2","4","0.20","12","0.60","4","","12","0","","","","","","","","SP1","Treasurer",""
"","","","","","html-keyboard-response","12","2.0.0","161634","yqgm95vm2d","2026-02-16","fd9b","null","699384e70271bb90b64007fc","Pilot_1","2","2","4","0.20","12","0.60","4","","12","0","","","","","","","","Treasurer","SP2",""
"","","","","","html-keyboard-response","13","2.0.0","165117","yqgm95vm2d","2026-02-16","fd9b","null","699384e70271bb90b64007fc","Pilot_1","2","2","4","0.20","12","0.60","4","","12","0","","","","","","","","SP2","Treasurer",""
"","","","","","html-keyboard-response","14","2.0.0","169032","yqgm95vm2d","2026-02-16","fd9b","null","699384e70271bb90b64007fc","Pilot_1","2","2","4","0.20","12","0.60","4","","12","0","","","","","","","","Treasurer","SP2",""
"","","","","","html-keyboard-response","15","2.0.0","173166","yqgm95vm2d","2026-02-16","fd9b","null","699384e70271bb90b64007fc","Pilot_1","2","2","4","0.20","12","0.60","4","","12","0","","","","","","","","SP2","Treasurer",""
"","","","","","html-keyboard-response","16","2.0.0","176783","yqgm95vm2d","2026-02-16","fd9b","null","699384e70271bb90b64007fc","Pilot_1","2","2","4","0.20","12","0.60","4","","12","0","","","","","","","","Treasurer","SP1",""
"","","","","","html-keyboard-response","17","2.0.0","179700","yqgm95vm2d","2026-02-16","fd9b","null","699384e70271bb90b64007fc","Pilot_1","2","2","4","0.20","12","0.60","4","","12","0","","","","","","","","SP1","Treasurer",""
"","","","","","html-keyboard-response","18","2.0.0","183850","yqgm95vm2d","2026-02-16","fd9b","null","699384e70271bb90b64007fc","Pilot_1","2","2","4","0.20","12","0.60","4","","12","0","","","","","","","","Treasurer","SP2",""
"","","","","","html-keyboard-response","19","2.0.0","187534","yqgm95vm2d","2026-02-16","fd9b","null","699384e70271bb90b64007fc","Pilot_1","2","2","4","0.20","12","0.60","4","","12","0","","","","","","","","SP2","Treasurer",""
"","","","","","html-keyboard-response","20","2.0.0","192700","yqgm95vm2d","2026-02-16","fd9b","null","699384e70271bb90b64007fc","Pilot_1","2","2","4","0.20","12","0.60","4","","12","0","","","","","","","","Treasurer","SP2",""
"","","","","","html-keyboard-response","21","2.0.0","196801","yqgm95vm2d","2026-02-16","fd9b","null","699384e70271bb90b64007fc","Pilot_1","2","2","4","0.20","12","0.60","4","","12","0","","","","","","","","SP2","Treasurer",""
"","","","","","html-keyboard-response","22","2.0.0","200851","yqgm95vm2d","2026-02-16","fd9b","null","699384e70271bb90b64007fc","Pilot_1","2","2","4","0.20","12","0.60","4","","12","0","","","","","","","","Treasurer","SP1",""
"","","","","","html-keyboard-response","23","2.0.0","203700","yqgm95vm2d","2026-02-16","fd9b","null","699384e70271bb90b64007fc","Pilot_1","2","2","4","0.20","12","0.60","4","","12","0","","","","","","","","SP1","Treasurer",""
"","","","","","html-keyboard-response","24","2.0.0","208333","yqgm95vm2d","2026-02-16","fd9b","null","699384e70271bb90b64007fc","Pilot_1","2","2","4","0.20","12","0.60","4","","12","0","","","","","","","","Treasurer","SP2",""
"","","","","","html-keyboard-response","25","2.0.0","213299","yqgm95vm2d","2026-02-16","fd9b","null","699384e70271bb90b64007fc","Pilot_1","2","2","4","0.20","12","0.60","4","","12","0","","","","","","","","SP2","Treasurer",""
"","","","","","html-keyboard-response","26","2.0.0","217449","yqgm95vm2d","2026-02-16","fd9b","null","699384e70271bb90b64007fc","Pilot_1","2","2","4","0.20","12","0.60","4","","12","0","","","","","","","","Treasurer","SP2",""
"","","","","","html-keyboard-response","27","2.0.0","221967","yqgm95vm2d","2026-02-16","fd9b","null","699384e70271bb90b64007fc","Pilot_1","2","2","4","0.20","12","0.60","4","","12","0","","","","","","","","SP2","Treasurer",""
"","","","","","html-keyboard-response","28","2.0.0","226516","yqgm95vm2d","2026-02-16","fd9b","null","699384e70271bb90b64007fc","Pilot_1","2","2","4","0.20","12","0.60","4","","12","0","","","","","","","","Treasurer","SP1",""
"","","","","","html-keyboard-response","29","2.0.0","229017","yqgm95vm2d","2026-02-16","fd9b","null","699384e70271bb90b64007fc","Pilot_1","2","2","4","0.20","12","0.60","4","","12","0","","","","","","","","SP1","Treasurer",""
"","","","","","html-keyboard-response","30","2.0.0","233200","yqgm95vm2d","2026-02-16","fd9b","null","699384e70271bb90b64007fc","Pilot_1","2","2","4","0.20","12","0.60","4","","12","0","","","","","","","","Treasurer","SP2",""
"","","","","","html-keyboard-response","31","2.0.0","237501","yqgm95vm2d","2026-02-16","fd9b","null","699384e70271bb90b64007fc","Pilot_1","2","2","4","0.20","12","0.60","4","","12","0","","","","","","","","SP2","Treasurer",""
"","","","","","html-keyboard-response","32","2.0.0","242234","yqgm95vm2d","2026-02-16","fd9b","null","699384e70271bb90b64007fc","Pilot_1","2","2","4","0.20","12","0.60","4","","12","0","","","","","","","","Treasurer","SP2",""
"","","","","","html-keyboard-response","33","2.0.0","246467","yqgm95vm2d","2026-02-16","fd9b","null","699384e70271bb90b64007fc","Pilot_1","2","2","4","0.20","12","0.60","4","","12","0","","","","","","","","SP2","Treasurer",""
"","","","","","html-keyboard-response","34","2.0.0","250984","yqgm95vm2d","2026-02-16","fd9b","null","699384e70271bb90b64007fc","Pilot_1","2","2","4","0.20","12","0.60","4","","12","0","","","","","","","","Treasurer","SP2",""
"","","","","","html-keyboard-response","35","2.0.0","255300","yqgm95vm2d","2026-02-16","fd9b","null","699384e70271bb90b64007fc","Pilot_1","2","2","4","0.20","12","0.60","4","","12","0","","","","","","","","SP2","Treasurer",""
"","","","","","html-keyboard-response","36","2.0.0","258700","yqgm95vm2d","2026-02-16","fd9b","null","699384e70271bb90b64007fc","Pilot_1","2","2","4","0.20","12","0.60","4","","12","0","","","","","","","","Treasurer","SP2",""
"","","","","","html-keyboard-response","37","2.0.0","263267","yqgm95vm2d","2026-02-16","fd9b","null","699384e70271bb90b64007fc","Pilot_1","2","2","4","0.20","12","0.60","4","","12","0","","","","","","","","SP2","Treasurer",""
"","","","","","html-keyboard-response","38","2.0.0","267234","yqgm95vm2d","2026-02-16","fd9b","null","699384e70271bb90b64007fc","Pilot_1","2","2","4","0.20","12","0.60","4","","12","0","","","","","","","","Treasurer","SP2",""
"","","","","","html-keyboard-response","39","2.0.0","270634","yqgm95vm2d","2026-02-16","fd9b","null","699384e70271bb90b64007fc","Pilot_1","2","2","4","0.20","12","0.60","4","","12","0","","","","","","","","SP2","Treasurer",""
"","","","","","html-button-response","40","2.0.0","273557","yqgm95vm2d","2026-02-16","fd9b","null","699384e70271bb90b64007fc","Pilot_1","2","2","4","0.20","12","0.60","4","","12","0","end_game","2922","<h2>Game Over</h2>
              <p style=""width: 800px; text-align: start;"">The game has ended! You earned <b>4 points</b>, which is equivalent to <b>$0.20</b>.<br><br>
                Your fellow player, Standard Player 2, earned <b>12 points</b>, which is equivalent to <b>$0.60</b>.<br><br>
                Please click the button below to continue to the next part of the study.</p>","0","","","","","",""
"","","","","","survey-text","41","2.0.0","285225","yqgm95vm2d","2026-02-16","fd9b","null","699384e70271bb90b64007fc","Pilot_1","2","2","4","0.20","12","0.60","4","","12","0","comprehension_check","11663","","{""SP1_ball_received_T"":""4"",""SP2_ball_received_T"":""12""}","","","","","",""
"","","","","","html-slider-response","42","2.0.0","322825","yqgm95vm2d","2026-02-16","fd9b","null","699384e70271bb90b64007fc","Pilot_1","2","2","4","0.20","12","0.60","4","","12","0","","37598","
  <p style=""width: 1000px; padding: 10px"">
    You may choose to reduce SP2’s earnings by giving up some of your own earnings. This is a <u>one-time, one-sided decision</u>. This means only you make this decision; SP2 will not make a corresponding decision.<br><br>

    For every <b>$0.01</b> you give up, SP2’s earnings are reduced by <b>$0.05</b>.<br>
    For example, giving up <b>$0.03</b> reduces SP2’s earnings by <b>$0.15</b>. Choosing $0 means no change to either participant's earnings.<br>
    Earnings for either participant cannot go below <b>$0</b>.<br><br>

    You may move the slider below to see how different choices would affect both participants’ earnings. Moving the slider does not finalize your decision. Your decision is only locked in once you click 'Continue' and move on to the next task.<br><br>

    There is no correct or expected choice. Please use the slider to indicate how much of your own earnings you would like to give up in order to reduce SP2's earnings.
    </p>

  <div style=""
    display:flex;
    justify-content:center;
    gap:100px;
    margin:30px 0;
    align-items:flex-end;
  "">

    <div style=""text-align:center;"">
      <div id=""sp1-baseline"" style=""font-weight: bold; margin-bottom:6px;"">$0.00</div>
      <div id=""sp1-coins""></div>
      <div style=""margin-top:6px;"">You (SP1)</div>
    </div>

    <div style=""text-align:center;"">
      <div id=""sp2-baseline"" style=""font-weight: bold; margin-bottom:6px;"">$0.00</div>
      <div id=""sp2-coins""></div>
      <div style=""margin-top:6px;"">SP2</div>
    </div>

  </div>
  ","0","","","","","","0"
"","","","","","call-function","43","null","322826","yqgm95vm2d","2026-02-16","fd9b","null","699384e70271bb90b64007fc","Pilot_1","2","2","4","0.20","12","0.60","4","","12","0","","","","","","","","","",""
"","","","","","survey-text","44","2.0.0","730877","yqgm95vm2d","2026-02-16","fd9b","null","699384e70271bb90b64007fc","Pilot_1","2","2","4","0.20","12","0.60","4","","12","0","","408053","","{""dv1_OE_game_satisfaction"":""i am not satisfied as I didn't win very many points. I am not sure why player 2 was receiving more throws than I was but I didn't like it. I patiently waited for my turn but it took a while and I don't believe it was fair for me."",""dv1_oe_playtime_satisfaction"":""No, I think it should have been based on some sort of criteria stating why and who gets the ball based on something. I don't believe it was completely random as the other player received 3 times what I did. I don't believe this was fair for me and would like to play again."",""dv1_oe_earnings_satisfaction"":""No, I think it is unfair how many times the other player received the ball. I don't know what the criteria was as to who and whne the ball was thrown too. I would like to play again and get another chance to collect points for the bonus. thank you."",""dv1_oe_treasurer_behavior"":""I don't like how they behaved I do not think it was fair that they were continously throwing the ball to the other player. I don't know why the other player received more throws. It didn't meet my expectiations. I would have liked if there was a way to make it so I had more chances."",""dv1_oe_sp2_behavior"":""I don't like how they behaved I do not think it was fair that they were continously throwing the ball to the other player. I don't know why they received more throws. It didn't meet my expectiations. I would have liked if there was a way to make it so I had more chances."",""dv1_oe_message_to_treasurer"":""I would ask them how I can get more throws and how I can encourage them to throw me more balls. I would also ask why the other player kept receiving more throws that I did. I would have liked if there was a way to make it so I had more chances."",""dv1_oe_message_to_sp2"":""I would ask them how I can get more throws and how I can encourage them to throw me more balls. I would also ask why the other player kept receiving more throws that I did. I would have liked if there was a way to make it so I had more chances.""}","","","","","",""
"","","","","","survey-likert","45","2.0.0","767346","yqgm95vm2d","2026-02-16","fd9b","null","699384e70271bb90b64007fc","Pilot_1","2","2","4","0.20","12","0.60","4","","12","0","","36463","","{""dv2_praising"":3,""dv2_insulting"":3,""dv2_avoiding"":3,""dv2_become_friends"":3,""dv2_unkind_things"":3,""dv2_helping"":4,""dv2_complementing"":3,""dv2_favor"":4,""dv2_invite_fun"":3,""dv2_ignore"":3}","[0,1,2,3,4,5,6,7,8,9]","","","","",""
"","","","","","survey-likert","46","2.0.0","816664","yqgm95vm2d","2026-02-16","fd9b","null","699384e70271bb90b64007fc","Pilot_1","2","2","4","0.20","12","0.60","4","","12","0","","49313","","{""dv3_state_envy"":5,""dv3_state_jealous"":5,""dv3_state_bitter"":3,""dv3_state_resentful"":5,""dv3_state_happy"":1,""dv3_state_compassionate"":4,""dv3_state_surprised"":5,""dv3_state_grateful"":2,""dv3_state_thankful"":3,""dv3_state_sad"":3,""dv3_state_upset"":4,""dv3_state_disappointed"":5,""dv3_state_annoyed"":5,""dv3_state_angry"":2,""dv3_state_shame"":6,""dv3_state_contempt"":3,""dv3_state_joy"":1,""dv3_state_irritated"":5}","[0,1,2,3,4,5,6,7,8,9,10,11,12,13,14,15,16,17]","","","","",""
"","","","","","survey-likert","47","2.0.0","865529","yqgm95vm2d","2026-02-16","fd9b","null","699384e70271bb90b64007fc","Pilot_1","2","2","4","0.20","12","0.60","4","","12","0","","48861","","{""dv3a_felt_excluded"":6,""dv3a_felt_bad_others"":6,""dv3a_game_different"":6,""dv3a_results_happy"":0,""dv3a_performed_well"":0,""dv3a_felt_ignored"":6,""dv3a_felt_malicious_envy"":5,""dv3a_attention_check_1"":1,""dv3a_understood_rules"":6,""dv3a_game_unfair"":6,""dv3a_wish_received_more"":6}","[6,10,2,1,9,4,7,5,8,0,3]","","","","",""
"","","","","","survey-likert","48","2.0.0","887978","yqgm95vm2d","2026-02-16","fd9b","null","699384e70271bb90b64007fc","Pilot_1","2","2","4","0.20","12","0.60","4","","12","0","","22446","","{""dv3b_sp2_deservingness"":3,""dv3b_sp2_unfiar"":3,""dv3b_sp2_competition"":6,""dv3b_sp2_take_winnings"":4,""dv3b_sp2_rival"":6,""dv3b_sp2_shared_goals"":6,""dv3b_sp2_betrayal"":3,""dv3b_sp2_closeness"":3}","[4,2,5,3,7,6,1,0]","","","","",""
"","","","","","survey-likert","49","2.0.0","906028","yqgm95vm2d","2026-02-16","fd9b","null","699384e70271bb90b64007fc","Pilot_1","2","2","4","0.20","12","0.60","4","","12","0","","18047","","{""dv3c_treasurer_closeness"":3,""dv3b_treasurer_shared_goals"":3,""dv3c_treasurer_betrayal"":5,""dv3b_treasurer_rival"":5,""dv3b_treasurer_competition"":5,""dv3c_treasurer_unfair"":5}","[0,4,1,5,3,2]","","","","",""
"","","","","","survey-likert","50","2.0.0","945446","yqgm95vm2d","2026-02-16","fd9b","null","699384e70271bb90b64007fc","Pilot_1","2","2","4","0.20","12","0.60","4","","12","0","","39415","","{""dv4_rain_on_parade"":0,""dv4_trade_places_rev"":3,""dv4_angry_others_succeed"":4,""dv4_happy_friends_succeed_rev"":4,""dv4_content_with_self_rev"":4,""dv4_happy_others_succeed_rev"":3,""dv4_pain_friends_succeed"":4,""dv4_prefer_stranger_win"":3}","[0,1,2,3,4,5,6,7]","","","","",""
"","","","","","survey-multi-choice","51","2.1.0","962662","yqgm95vm2d","2026-02-16","fd9b","null","699384e70271bb90b64007fc","Pilot_1","2","2","4","0.20","12","0.60","4","","12","0","","17212","","{""demo_attention_check_2"":""1000+"",""demo_sex"":""Female"",""demo_gender"":""Woman"",""demo_education"":""Some college, no degree"",""demo_social_class"":""1 = lower/working"",""demo_marital_status"":""Never married""}","[0,1,2,3,4,5]","","","","",""
"","","","","","survey-text","52","2.0.0","965511","yqgm95vm2d","2026-02-16","fd9b","null","699384e70271bb90b64007fc","Pilot_1","2","2","4","0.20","12","0.60","4","","12","0","","2847","","{""demo_age"":""37""}","","","","","",""
"","","","","","survey-multi-select","53","null","967578","yqgm95vm2d","2026-02-16","fd9b","null","699384e70271bb90b64007fc","Pilot_1","2","2","4","0.20","12","0.60","4","","12","0","","2062","","{""demo_race"":[""White""]}","[0]","","","","",""
"","","","","","survey-likert","54","2.0.0","971743","yqgm95vm2d","2026-02-16","fd9b","null","699384e70271bb90b64007fc","Pilot_1","2","2","4","0.20","12","0.60","4","","12","0","","4164","","{""attention_check_3"":4}","[0]","","","","",""
"","","","","","survey-text","55","2.0.0","1006844","yqgm95vm2d","2026-02-16","fd9b","null","699384e70271bb90b64007fc","Pilot_1","2","2","4","0.20","12","0.60","4","","12","0","","35098","","{""funnel1"":""Reactions to unfairness "",""funnel2"":""How I reacted and felt by being ignored"",""funnel3"":""I found this to be an interesting survey""}","","","","","",""
